File: 10mV-Mxene3_2.txt
Potential applied (V);Time (s);WE(1).Current (A);Scan;Index;Q+;Q-;Current range
-0.0975037;62.2964;-0.000194458;1;1;0.00612457;-0.0055012;10 mA
-0.0828552;63.7613;-0.000105865;1;7;0.00612457;-0.0055012;1 mA
-0.0682068;65.2261;-6.62231e-05;1;13;0.00612457;-0.0055012;100 µA
-0.0535583;66.691;-4.11896e-05;1;19;0.00612457;-0.0055012;100 µA
-0.0389099;68.1558;-2.36084e-05;1;25;0.00612457;-0.0055012;10 µA
-0.0242615;69.6207;-1.07849e-05;1;31;0.00612457;-0.0055012;10 µA
-0.00961304;71.0855;-1.09192e-06;1;37;0.00612457;-0.0055012;10 µA
0.0050354;72.5504;6.45996e-06;1;43;0.00612457;-0.0055012;1 µA
0.0196838;74.0152;1.24298e-05;1;49;0.00612457;-0.0055012;10 µA
0.0343323;75.48;1.72546e-05;1;55;0.00612457;-0.0055012;10 µA
0.0489807;76.9449;2.12524e-05;1;61;0.00612457;-0.0055012;10 µA
0.0636292;78.4097;2.46704e-05;1;67;0.00612457;-0.0055012;10 µA
0.0782776;79.8746;2.76245e-05;1;73;0.00612457;-0.0055012;10 µA
0.092926;81.3394;3.03772e-05;1;79;0.00612457;-0.0055012;10 µA
0.107574;82.8043;3.28827e-05;1;85;0.00612457;-0.0055012;10 µA
0.122223;84.2691;3.52478e-05;1;91;0.00612457;-0.0055012;10 µA
0.136871;85.734;3.75366e-05;1;97;0.00612457;-0.0055012;10 µA
0.15152;87.1988;3.96973e-05;1;103;0.00612457;-0.0055012;10 µA
0.166168;88.6637;4.17725e-05;1;109;0.00612457;-0.0055012;10 µA
0.180817;90.1285;4.38324e-05;1;115;0.00612457;-0.0055012;10 µA
0.195465;91.5934;4.57977e-05;1;121;0.00612457;-0.0055012;10 µA
0.210114;93.0582;4.78088e-05;1;127;0.00612457;-0.0055012;10 µA
0.224762;94.523;4.97284e-05;1;133;0.00612457;-0.0055012;10 µA
0.23941;95.9879;5.15167e-05;1;139;0.00612457;-0.0055012;10 µA
0.254059;97.4527;5.32745e-05;1;145;0.00612457;-0.0055012;10 µA
0.268707;98.9176;5.50079e-05;1;151;0.00612457;-0.0055012;10 µA
0.283356;100.382;5.68085e-05;1;157;0.00612457;-0.0055012;10 µA
0.298004;101.847;5.87067e-05;1;163;0.00612457;-0.0055012;10 µA
0.312653;103.312;6.073e-05;1;169;0.00612457;-0.0055012;100 µA
0.327301;104.777;6.29883e-05;1;175;0.00612457;-0.0055012;100 µA
0.341949;106.242;6.53381e-05;1;181;0.00612457;-0.0055012;100 µA
0.356598;107.707;6.7749e-05;1;187;0.00612457;-0.0055012;100 µA
0.371246;109.172;7.00989e-05;1;193;0.00612457;-0.0055012;100 µA
0.385895;110.636;7.22046e-05;1;199;0.00612457;-0.0055012;100 µA
0.400543;112.101;7.39441e-05;1;205;0.00612457;-0.0055012;100 µA
0.415192;113.566;7.52563e-05;1;211;0.00612457;-0.0055012;100 µA
0.42984;115.031;7.60193e-05;1;217;0.00612457;-0.0055012;100 µA
0.444489;116.496;7.63245e-05;1;223;0.00612457;-0.0055012;100 µA
0.459137;117.961;7.61719e-05;1;229;0.00612457;-0.0055012;100 µA
0.473785;119.425;7.56226e-05;1;235;0.00612457;-0.0055012;100 µA
0.488434;120.89;7.47986e-05;1;241;0.00612457;-0.0055012;100 µA
0.503082;122.355;7.37305e-05;1;247;0.00612457;-0.0055012;100 µA
0.517731;123.82;7.26013e-05;1;253;0.00612457;-0.0055012;100 µA
0.532379;125.285;7.14111e-05;1;259;0.00612457;-0.0055012;100 µA
0.547028;126.75;7.02209e-05;1;265;0.00612457;-0.0055012;100 µA
0.561676;128.215;6.90613e-05;1;271;0.00612457;-0.0055012;100 µA
0.576324;129.679;6.79016e-05;1;277;0.00612457;-0.0055012;100 µA
0.590973;131.144;6.6803e-05;1;283;0.00612457;-0.0055012;100 µA
0.605621;132.609;6.57043e-05;1;289;0.00612457;-0.0055012;100 µA
0.62027;134.074;6.46667e-05;1;295;0.00612457;-0.0055012;100 µA
0.634918;135.539;6.36597e-05;1;301;0.00612457;-0.0055012;100 µA
0.649567;137.004;6.27136e-05;1;307;0.00612457;-0.0055012;100 µA
0.664215;138.468;6.18286e-05;1;313;0.00612457;-0.0055012;100 µA
0.678864;139.933;6.10046e-05;1;319;0.00612457;-0.0055012;100 µA
0.693512;141.398;6.02722e-05;1;325;0.00612457;-0.0055012;100 µA
0.70816;142.863;5.95703e-05;1;331;0.00612457;-0.0055012;100 µA
0.722809;144.328;5.89905e-05;1;337;0.00612457;-0.0055012;100 µA
0.737457;145.793;5.85022e-05;1;343;0.00612457;-0.0055012;100 µA
0.752106;147.257;5.81055e-05;1;349;0.00612457;-0.0055012;100 µA
0.766754;148.722;5.79224e-05;1;355;0.00612457;-0.0055012;100 µA
0.781403;150.187;5.79224e-05;1;361;0.00612457;-0.0055012;100 µA
0.796051;151.652;5.82275e-05;1;367;0.00612457;-0.0055012;100 µA
0.810699;153.117;5.88684e-05;1;373;0.00612457;-0.0055012;100 µA
0.825348;154.582;5.9967e-05;1;379;0.00612457;-0.0055012;100 µA
0.839996;156.047;6.16455e-05;1;385;0.00612457;-0.0055012;100 µA
0.849762;157.511;5.69153e-05;1;391;0.00612457;-0.0055012;100 µA
0.835114;158.976;3.40729e-05;1;397;0.00612457;-0.0055012;100 µA
0.820465;160.441;2.01996e-05;1;403;0.00612457;-0.0055012;10 µA
0.805817;161.906;1.03607e-05;1;409;0.00612457;-0.0055012;10 µA
0.791168;163.371;3.08258e-06;1;415;0.00612457;-0.0055012;10 µA
0.77652;164.836;-2.31964e-06;1;421;0.00612457;-0.0055012;1 µA
0.761871;166.3;-6.45569e-06;1;427;0.00612457;-0.0055012;1 µA
0.747223;167.765;-9.60999e-06;1;433;0.00612457;-0.0055012;10 µA
0.732574;169.23;-1.20636e-05;1;439;0.00612457;-0.0055012;10 µA
0.717926;170.695;-1.40289e-05;1;445;0.00612457;-0.0055012;10 µA
0.703278;172.16;-1.56464e-05;1;451;0.00612457;-0.0055012;10 µA
0.688629;173.625;-1.70135e-05;1;457;0.00612457;-0.0055012;10 µA
0.673981;175.09;-1.82617e-05;1;463;0.00612457;-0.0055012;10 µA
0.659332;176.554;-1.94305e-05;1;469;0.00612457;-0.0055012;10 µA
0.644684;178.019;-2.05444e-05;1;475;0.00612457;-0.0055012;10 µA
0.630035;179.484;-2.16461e-05;1;481;0.00612457;-0.0055012;10 µA
0.615387;180.949;-2.27661e-05;1;487;0.00612457;-0.0055012;10 µA
0.600739;182.414;-2.39075e-05;1;493;0.00612457;-0.0055012;10 µA
0.58609;183.879;-2.50946e-05;1;499;0.00612457;-0.0055012;10 µA
0.571442;185.343;-2.63458e-05;1;505;0.00612457;-0.0055012;10 µA
0.556793;186.808;-2.76642e-05;1;511;0.00612457;-0.0055012;10 µA
0.542145;188.273;-2.90466e-05;1;517;0.00612457;-0.0055012;10 µA
0.527496;189.738;-3.05817e-05;1;523;0.00612457;-0.0055012;10 µA
0.512848;191.203;-3.22021e-05;1;529;0.00612457;-0.0055012;10 µA
0.498199;192.668;-3.39478e-05;1;535;0.00612457;-0.0055012;10 µA
0.483551;194.133;-3.58307e-05;1;541;0.00612457;-0.0055012;10 µA
0.468903;195.597;-3.7854e-05;1;547;0.00612457;-0.0055012;10 µA
0.454254;197.062;-4.00208e-05;1;553;0.00612457;-0.0055012;10 µA
0.439606;198.527;-4.2392e-05;1;559;0.00612457;-0.0055012;10 µA
0.424957;199.992;-4.49646e-05;1;565;0.00612457;-0.0055012;10 µA
0.410309;201.457;-4.77844e-05;1;571;0.00612457;-0.0055012;10 µA
0.39566;202.922;-5.08636e-05;1;577;0.00612457;-0.0055012;10 µA
0.381012;204.386;-5.41351e-05;1;583;0.00612457;-0.0055012;10 µA
0.366364;205.851;-5.75684e-05;1;589;0.00612457;-0.0055012;10 µA
0.351715;207.316;-6.10962e-05;1;595;0.00612457;-0.0055012;100 µA
0.337067;208.781;-6.46057e-05;1;601;0.00612457;-0.0055012;100 µA
0.322418;210.246;-6.79932e-05;1;607;0.00612457;-0.0055012;100 µA
0.30777;211.711;-7.1167e-05;1;613;0.00612457;-0.0055012;100 µA
0.293121;213.176;-7.40356e-05;1;619;0.00612457;-0.0055012;100 µA
0.278473;214.64;-7.65381e-05;1;625;0.00612457;-0.0055012;100 µA
0.263824;216.105;-7.86438e-05;1;631;0.00612457;-0.0055012;100 µA
0.249176;217.57;-8.03223e-05;1;637;0.00612457;-0.0055012;100 µA
0.234528;219.035;-8.16345e-05;1;643;0.00612457;-0.0055012;100 µA
0.219879;220.5;-8.25806e-05;1;649;0.00612457;-0.0055012;100 µA
0.205231;221.965;-8.32214e-05;1;655;0.00612457;-0.0055012;100 µA
0.190582;223.429;-8.36182e-05;1;661;0.00612457;-0.0055012;100 µA
0.175934;224.894;-8.37402e-05;1;667;0.00612457;-0.0055012;100 µA
0.161285;226.359;-8.36487e-05;1;673;0.00612457;-0.0055012;100 µA
0.146637;227.824;-8.32825e-05;1;679;0.00612457;-0.0055012;100 µA
0.131989;229.289;-8.27332e-05;1;685;0.00612457;-0.0055012;100 µA
0.11734;230.754;-8.203125E-05;1;691;0.00612457;-0.0055012;100 µA
0.102692;232.219;-8.12378e-05;1;697;0.00612457;-0.0055012;100 µA
0.0880432;233.683;-8.04443e-05;1;703;0.00612457;-0.0055012;100 µA
0.0733948;235.148;-7.95898e-05;1;709;0.00612457;-0.0055012;100 µA
0.0587463;236.613;-7.87964e-05;1;715;0.00612457;-0.0055012;100 µA
0.0440979;238.078;-7.8125E-05;1;721;0.00612457;-0.0055012;100 µA
0.0294495;239.543;-7.75757e-05;1;727;0.00612457;-0.0055012;100 µA
0.014801;241.008;-7.71179e-05;1;733;0.00612457;-0.0055012;100 µA
0.000152588;242.472;-7.68433e-05;1;739;0.00612457;-0.0055012;100 µA
-0.0144958;243.937;-7.66907e-05;1;745;0.00612457;-0.0055012;100 µA
-0.0291443;245.402;-7.67517e-05;1;751;0.00612457;-0.0055012;100 µA
-0.0437927;246.867;-7.70264e-05;1;757;0.00612457;-0.0055012;100 µA
-0.0584412;248.332;-7.76062e-05;1;763;0.00612457;-0.0055012;100 µA
-0.0730896;249.797;-7.85828e-05;1;769;0.00612457;-0.0055012;100 µA
-0.087738;251.262;-8.00781e-05;1;775;0.00612457;-0.0055012;100 µA
-0.0975037;252.726;-7.3761e-05;1;781;0.00612457;-0.0055012;100 µA
-0.0828552;254.191;-4.59137e-05;1;787;0.00612457;-0.0055012;100 µA
-0.0682068;255.656;-2.83844e-05;1;793;0.00612457;-0.0055012;10 µA
-0.0535583;257.121;-1.55945e-05;1;799;0.00612457;-0.0055012;10 µA
-0.0389099;258.586;-5.83801e-06;1;805;0.00612457;-0.0055012;10 µA
-0.0242615;260.051;1.84479e-06;1;811;0.00612457;-0.0055012;1 µA
-0.00961304;261.515;8.01697e-06;1;817;0.00612457;-0.0055012;10 µA
0.0050354;262.98;1.30798e-05;1;823;0.00612457;-0.0055012;10 µA
0.0196838;264.445;1.72302e-05;1;829;0.00612457;-0.0055012;10 µA
0.0343323;265.91;2.07672e-05;1;835;0.00612457;-0.0055012;10 µA
0.0489807;267.375;2.38159e-05;1;841;0.00612457;-0.0055012;10 µA
0.0636292;268.84;2.65442e-05;1;847;0.00612457;-0.0055012;10 µA
0.0782776;270.305;2.90253e-05;1;853;0.00612457;-0.0055012;10 µA
0.092926;271.769;3.14026e-05;1;859;0.00612457;-0.0055012;10 µA
0.107574;273.234;3.36914e-05;1;865;0.00612457;-0.0055012;10 µA
0.122223;274.699;3.58917e-05;1;871;0.00612457;-0.0055012;10 µA
0.136871;276.164;3.80676e-05;1;877;0.00612457;-0.0055012;10 µA
0.15152;277.629;4.01794e-05;1;883;0.00612457;-0.0055012;10 µA
0.166168;279.094;4.22272e-05;1;889;0.00612457;-0.0055012;10 µA
0.180817;280.558;4.42871e-05;1;895;0.00612457;-0.0055012;10 µA
0.195465;282.023;4.63196e-05;1;901;0.00612457;-0.0055012;10 µA
0.210114;283.488;4.84253e-05;1;907;0.00612457;-0.0055012;10 µA
0.224762;284.953;5.05035e-05;1;913;0.00612457;-0.0055012;10 µA
0.23941;286.418;5.25024e-05;1;919;0.00612457;-0.0055012;10 µA
0.254059;287.883;5.44464e-05;1;925;0.00612457;-0.0055012;10 µA
0.268707;289.348;5.63965e-05;1;931;0.00612457;-0.0055012;10 µA
0.283356;290.812;5.83435e-05;1;937;0.00612457;-0.0055012;10 µA
0.298004;292.277;6.02112e-05;1;943;0.00612457;-0.0055012;100 µA
0.312653;293.742;6.23779e-05;2;949;0.00496574;-0.00501939;100 µA
0.327301;295.207;6.45447e-05;2;955;0.00496574;-0.00501939;100 µA
0.341949;296.672;6.67725e-05;2;961;0.00496574;-0.00501939;100 µA
0.356598;298.137;6.90308e-05;2;967;0.00496574;-0.00501939;100 µA
0.371246;299.601;7.11975e-05;2;973;0.00496574;-0.00501939;100 µA
0.385895;301.066;7.31506e-05;2;979;0.00496574;-0.00501939;100 µA
0.400543;302.531;7.4707e-05;2;985;0.00496574;-0.00501939;100 µA
0.415192;303.996;7.58362e-05;2;991;0.00496574;-0.00501939;100 µA
0.42984;305.461;7.6416e-05;2;997;0.00496574;-0.00501939;100 µA
0.444489;306.926;7.65381e-05;2;1003;0.00496574;-0.00501939;100 µA
0.459137;308.391;7.61719e-05;2;1009;0.00496574;-0.00501939;100 µA
0.473785;309.855;7.547e-05;2;1015;0.00496574;-0.00501939;100 µA
0.488434;311.32;7.44629e-05;2;1021;0.00496574;-0.00501939;100 µA
0.503082;312.785;7.32727e-05;2;1027;0.00496574;-0.00501939;100 µA
0.517731;314.25;7.1991e-05;2;1033;0.00496574;-0.00501939;100 µA
0.532379;315.715;7.07092e-05;2;1039;0.00496574;-0.00501939;100 µA
0.547028;317.18;6.9397e-05;2;1045;0.00496574;-0.00501939;100 µA
0.561676;318.644;6.81763e-05;2;1051;0.00496574;-0.00501939;100 µA
0.576324;320.109;6.69556e-05;2;1057;0.00496574;-0.00501939;100 µA
0.590973;321.574;6.57959e-05;2;1063;0.00496574;-0.00501939;100 µA
0.605621;323.039;6.46667e-05;2;1069;0.00496574;-0.00501939;100 µA
0.62027;324.504;6.35986e-05;2;1075;0.00496574;-0.00501939;100 µA
0.634918;325.969;6.2561e-05;2;1081;0.00496574;-0.00501939;100 µA
0.649567;327.434;6.1615e-05;2;1087;0.00496574;-0.00501939;100 µA
0.664215;328.898;6.07605e-05;2;1093;0.00496574;-0.00501939;100 µA
0.678864;330.363;5.99365e-05;2;1099;0.00496574;-0.00501939;100 µA
0.693512;331.828;5.92041e-05;2;1105;0.00496574;-0.00501939;100 µA
0.70816;333.293;5.85327e-05;2;1111;0.00496574;-0.00501939;100 µA
0.722809;334.758;5.79224e-05;2;1117;0.00496574;-0.00501939;100 µA
0.737457;336.223;5.74646e-05;2;1123;0.00496574;-0.00501939;100 µA
0.752106;337.687;5.70679e-05;2;1129;0.00496574;-0.00501939;100 µA
0.766754;339.152;5.68848e-05;2;1135;0.00496574;-0.00501939;100 µA
0.781403;340.617;5.68542e-05;2;1141;0.00496574;-0.00501939;100 µA
0.796051;342.082;5.70984e-05;2;1147;0.00496574;-0.00501939;100 µA
0.810699;343.547;5.76477e-05;2;1153;0.00496574;-0.00501939;100 µA
0.825348;345.012;5.86548e-05;2;1159;0.00496574;-0.00501939;100 µA
0.839996;346.477;6.01807e-05;2;1165;0.00496574;-0.00501939;100 µA
0.849762;347.941;5.52063e-05;2;1171;0.00496574;-0.00501939;100 µA
0.835114;349.406;3.24097e-05;2;1177;0.00496574;-0.00501939;100 µA
0.820465;350.871;1.87103e-05;2;1183;0.00496574;-0.00501939;10 µA
0.805817;352.336;9.03931e-06;2;1189;0.00496574;-0.00501939;10 µA
0.791168;353.801;1.95404e-06;2;1195;0.00496574;-0.00501939;10 µA
0.77652;355.266;-3.3075e-06;2;1201;0.00496574;-0.00501939;1 µA
0.761871;356.73;-7.27844e-06;2;1207;0.00496574;-0.00501939;10 µA
0.747223;358.195;-1.02997e-05;2;1213;0.00496574;-0.00501939;10 µA
0.732574;359.66;-1.26617e-05;2;1219;0.00496574;-0.00501939;10 µA
0.717926;361.125;-1.45172e-05;2;1225;0.00496574;-0.00501939;10 µA
0.703278;362.59;-1.60797e-05;2;1231;0.00496574;-0.00501939;10 µA
0.688629;364.055;-1.74042e-05;2;1237;0.00496574;-0.00501939;10 µA
0.673981;365.52;-1.86066e-05;2;1243;0.00496574;-0.00501939;10 µA
0.659332;366.984;-1.97327e-05;2;1249;0.00496574;-0.00501939;10 µA
0.644684;368.449;-2.08191e-05;2;1255;0.00496574;-0.00501939;10 µA
0.630035;369.914;-2.18964e-05;2;1261;0.00496574;-0.00501939;10 µA
0.615387;371.379;-2.29919e-05;2;1267;0.00496574;-0.00501939;10 µA
0.600739;372.844;-2.41394e-05;2;1273;0.00496574;-0.00501939;10 µA
0.58609;374.309;-2.53113e-05;2;1279;0.00496574;-0.00501939;10 µA
0.571442;375.773;-2.65778e-05;2;1285;0.00496574;-0.00501939;10 µA
0.556793;377.238;-2.78809e-05;2;1291;0.00496574;-0.00501939;10 µA
0.542145;378.703;-2.92664e-05;2;1297;0.00496574;-0.00501939;10 µA
0.527496;380.168;-3.07983e-05;2;1303;0.00496574;-0.00501939;10 µA
0.512848;381.633;-3.24097e-05;2;1309;0.00496574;-0.00501939;10 µA
0.498199;383.098;-3.41553e-05;2;1315;0.00496574;-0.00501939;10 µA
0.483551;384.563;-3.60504e-05;2;1321;0.00496574;-0.00501939;10 µA
0.468903;386.027;-3.80859e-05;2;1327;0.00496574;-0.00501939;10 µA
0.454254;387.492;-4.02679e-05;2;1333;0.00496574;-0.00501939;10 µA
0.439606;388.957;-4.26483e-05;2;1339;0.00496574;-0.00501939;10 µA
0.424957;390.422;-4.52301e-05;2;1345;0.00496574;-0.00501939;10 µA
0.410309;391.887;-4.80957e-05;2;1351;0.00496574;-0.00501939;10 µA
0.39566;393.352;-5.11993e-05;2;1357;0.00496574;-0.00501939;10 µA
0.381012;394.816;-5.44983e-05;2;1363;0.00496574;-0.00501939;10 µA
0.366364;396.281;-5.79651e-05;2;1369;0.00496574;-0.00501939;10 µA
0.351715;397.746;-6.15234e-05;2;1375;0.00496574;-0.00501939;100 µA
0.337067;399.211;-6.50635e-05;2;1381;0.00496574;-0.00501939;100 µA
0.322418;400.676;-6.84509e-05;2;1387;0.00496574;-0.00501939;100 µA
0.30777;402.141;-7.17163e-05;2;1393;0.00496574;-0.00501939;100 µA
0.293121;403.606;-7.4585e-05;2;1399;0.00496574;-0.00501939;100 µA
0.278473;405.07;-7.71179e-05;2;1405;0.00496574;-0.00501939;100 µA
0.263824;406.535;-7.92542e-05;2;1411;0.00496574;-0.00501939;100 µA
0.249176;408;-8.09631e-05;2;1417;0.00496574;-0.00501939;100 µA
0.234528;409.465;-8.23059e-05;2;1423;0.00496574;-0.00501939;100 µA
0.219879;410.93;-8.3252e-05;2;1429;0.00496574;-0.00501939;100 µA
0.205231;412.395;-8.39233e-05;2;1435;0.00496574;-0.00501939;100 µA
0.190582;413.859;-8.4259e-05;2;1441;0.00496574;-0.00501939;100 µA
0.175934;415.324;-8.44116e-05;2;1447;0.00496574;-0.00501939;100 µA
0.161285;416.789;-8.42896e-05;2;1453;0.00496574;-0.00501939;100 µA
0.146637;418.254;-8.39539e-05;2;1459;0.00496574;-0.00501939;100 µA
0.131989;419.719;-8.34045e-05;2;1465;0.00496574;-0.00501939;100 µA
0.11734;421.184;-8.26721e-05;2;1471;0.00496574;-0.00501939;100 µA
0.102692;422.649;-8.18176e-05;2;1477;0.00496574;-0.00501939;100 µA
0.0880432;424.113;-8.09937e-05;2;1483;0.00496574;-0.00501939;100 µA
0.0733948;425.578;-8.01392e-05;2;1489;0.00496574;-0.00501939;100 µA
0.0587463;427.043;-7.93457e-05;2;1495;0.00496574;-0.00501939;100 µA
0.0440979;428.508;-7.85828e-05;2;1501;0.00496574;-0.00501939;100 µA
0.0294495;429.973;-7.80945e-05;2;1507;0.00496574;-0.00501939;100 µA
0.014801;431.438;-7.76062e-05;2;1513;0.00496574;-0.00501939;100 µA
0.000152588;432.902;-7.724e-05;2;1519;0.00496574;-0.00501939;100 µA
-0.0144958;434.367;-7.70569e-05;2;1525;0.00496574;-0.00501939;100 µA
-0.0291443;435.832;-7.70264e-05;2;1531;0.00496574;-0.00501939;100 µA
-0.0437927;437.297;-7.72095e-05;2;1537;0.00496574;-0.00501939;100 µA
-0.0584412;438.762;-7.77283e-05;2;1543;0.00496574;-0.00501939;100 µA
-0.0730896;440.227;-7.84607e-05;2;1549;0.00496574;-0.00501939;100 µA
-0.087738;441.692;-7.96814e-05;2;1555;0.00496574;-0.00501939;100 µA
-0.0975037;443.156;-7.30286e-05;2;1561;0.00496574;-0.00501939;100 µA
-0.0828552;444.621;-4.48181e-05;2;1567;0.00496574;-0.00501939;100 µA
-0.0682068;446.086;-2.72461e-05;2;1573;0.00496574;-0.00501939;10 µA
-0.0535583;447.551;-1.4566e-05;2;1579;0.00496574;-0.00501939;10 µA
-0.0389099;449.016;-4.91028e-06;2;1585;0.00496574;-0.00501939;10 µA
-0.0242615;450.481;2.62115e-06;2;1591;0.00496574;-0.00501939;1 µA
-0.00961304;451.945;8.63342e-06;2;1597;0.00496574;-0.00501939;10 µA
0.0050354;453.41;1.3559e-05;2;1603;0.00496574;-0.00501939;10 µA
0.0196838;454.875;1.76025e-05;2;1609;0.00496574;-0.00501939;10 µA
0.0343323;456.34;2.10693e-05;2;1615;0.00496574;-0.00501939;10 µA
0.0489807;457.805;2.40601e-05;2;1621;0.00496574;-0.00501939;10 µA
0.0636292;459.27;2.67334e-05;2;1627;0.00496574;-0.00501939;10 µA
0.0782776;460.735;2.91931e-05;2;1633;0.00496574;-0.00501939;10 µA
0.092926;462.199;3.1543e-05;2;1639;0.00496574;-0.00501939;10 µA
0.107574;463.664;3.38287e-05;2;1645;0.00496574;-0.00501939;10 µA
0.122223;465.129;3.60382e-05;2;1651;0.00496574;-0.00501939;10 µA
0.136871;466.594;3.81836e-05;2;1657;0.00496574;-0.00501939;10 µA
0.15152;468.059;4.02985e-05;2;1663;0.00496574;-0.00501939;10 µA
0.166168;469.524;4.23645e-05;2;1669;0.00496574;-0.00501939;10 µA
0.180817;470.988;4.44397e-05;2;1675;0.00496574;-0.00501939;10 µA
0.195465;472.453;4.64905e-05;2;1681;0.00496574;-0.00501939;10 µA
0.210114;473.918;4.86023e-05;2;1687;0.00496574;-0.00501939;10 µA
0.224762;475.383;5.07019e-05;2;1693;0.00496574;-0.00501939;10 µA
0.23941;476.848;5.27313e-05;2;1699;0.00496574;-0.00501939;10 µA
0.254059;478.313;5.47302e-05;2;1705;0.00496574;-0.00501939;10 µA
0.268707;479.778;5.66742e-05;2;1711;0.00496574;-0.00501939;10 µA
0.283356;481.242;5.86456e-05;2;1717;0.00496574;-0.00501939;10 µA
0.298004;482.707;6.05774e-05;2;1723;0.00496574;-0.00501939;100 µA
0.312653;484.172;6.27136e-05;3;1729;0.00497668;-0.00503374;100 µA
0.327301;485.637;6.49109e-05;3;1735;0.00497668;-0.00503374;100 µA
0.341949;487.102;6.71387e-05;3;1741;0.00497668;-0.00503374;100 µA
0.356598;488.567;6.94275e-05;3;1747;0.00497668;-0.00503374;100 µA
0.371246;490.031;7.15942e-05;3;1753;0.00497668;-0.00503374;100 µA
0.385895;491.496;7.35474e-05;3;1759;0.00497668;-0.00503374;100 µA
0.400543;492.961;7.51038e-05;3;1765;0.00497668;-0.00503374;100 µA
0.415192;494.426;7.62329e-05;3;1771;0.00497668;-0.00503374;100 µA
0.42984;495.891;7.68127e-05;3;1777;0.00497668;-0.00503374;100 µA
0.444489;497.356;7.69348e-05;3;1783;0.00497668;-0.00503374;100 µA
0.459137;498.821;7.65381e-05;3;1789;0.00497668;-0.00503374;100 µA
0.473785;500.285;7.58057e-05;3;1795;0.00497668;-0.00503374;100 µA
0.488434;501.75;7.47986e-05;3;1801;0.00497668;-0.00503374;100 µA
0.503082;503.215;7.36084e-05;3;1807;0.00497668;-0.00503374;100 µA
0.517731;504.68;7.22961e-05;3;1813;0.00497668;-0.00503374;100 µA
0.532379;506.145;7.09534e-05;3;1819;0.00497668;-0.00503374;100 µA
0.547028;507.61;6.96411e-05;3;1825;0.00497668;-0.00503374;100 µA
0.561676;509.074;6.83594e-05;3;1831;0.00497668;-0.00503374;100 µA
0.576324;510.539;6.71387e-05;3;1837;0.00497668;-0.00503374;100 µA
0.590973;512.004;6.59485e-05;3;1843;0.00497668;-0.00503374;100 µA
0.605621;513.469;6.47888e-05;3;1849;0.00497668;-0.00503374;100 µA
0.62027;514.934;6.37207e-05;3;1855;0.00497668;-0.00503374;100 µA
0.634918;516.399;6.26831e-05;3;1861;0.00497668;-0.00503374;100 µA
0.649567;517.864;6.17371e-05;3;1867;0.00497668;-0.00503374;100 µA
0.664215;519.328;6.08215e-05;3;1873;0.00497668;-0.00503374;100 µA
0.678864;520.793;5.9967e-05;3;1879;0.00497668;-0.00503374;100 µA
0.693512;522.258;5.92041e-05;3;1885;0.00497668;-0.00503374;100 µA
0.70816;523.723;5.85022e-05;3;1891;0.00497668;-0.00503374;100 µA
0.722809;525.188;5.79224e-05;3;1897;0.00497668;-0.00503374;100 µA
0.737457;526.653;5.74036e-05;3;1903;0.00497668;-0.00503374;100 µA
0.752106;528.117;5.69763e-05;3;1909;0.00497668;-0.00503374;100 µA
0.766754;529.582;5.67627e-05;3;1915;0.00497668;-0.00503374;100 µA
0.781403;531.047;5.67017e-05;3;1921;0.00497668;-0.00503374;100 µA
0.796051;532.512;5.69153e-05;3;1927;0.00497668;-0.00503374;100 µA
0.810699;533.977;5.74036e-05;3;1933;0.00497668;-0.00503374;100 µA
0.825348;535.442;5.82886e-05;3;1939;0.00497668;-0.00503374;100 µA
0.839996;536.907;5.97229e-05;3;1945;0.00497668;-0.00503374;100 µA
0.849762;538.371;5.46265e-05;3;1951;0.00497668;-0.00503374;100 µA
0.835114;539.836;3.19153e-05;3;1957;0.00497668;-0.00503374;10 µA
0.820465;541.301;1.81793e-05;3;1963;0.00497668;-0.00503374;10 µA
0.805817;542.766;8.57544e-06;3;1969;0.00497668;-0.00503374;10 µA
0.791168;544.231;1.56891e-06;3;1975;0.00497668;-0.00503374;10 µA
0.77652;545.696;-3.61267e-06;3;1981;0.00497668;-0.00503374;1 µA
0.761871;547.16;-7.53479e-06;3;1987;0.00497668;-0.00503374;10 µA
0.747223;548.625;-1.0498e-05;3;1993;0.00497668;-0.00503374;10 µA
0.732574;550.09;-1.28082e-05;3;1999;0.00497668;-0.00503374;10 µA
0.717926;551.555;-1.46545e-05;3;2005;0.00497668;-0.00503374;10 µA
0.703278;553.02;-1.61926e-05;3;2011;0.00497668;-0.00503374;10 µA
0.688629;554.485;-1.74805e-05;3;2017;0.00497668;-0.00503374;10 µA
0.673981;555.95;-1.86829e-05;3;2023;0.00497668;-0.00503374;10 µA
0.659332;557.414;-1.98059e-05;3;2029;0.00497668;-0.00503374;10 µA
0.644684;558.879;-2.08832e-05;3;2035;0.00497668;-0.00503374;10 µA
0.630035;560.344;-2.19757e-05;3;2041;0.00497668;-0.00503374;10 µA
0.615387;561.809;-2.30743e-05;3;2047;0.00497668;-0.00503374;10 µA
0.600739;563.274;-2.41821e-05;3;2053;0.00497668;-0.00503374;10 µA
0.58609;564.739;-2.53906e-05;3;2059;0.00497668;-0.00503374;10 µA
0.571442;566.203;-2.66205e-05;3;2065;0.00497668;-0.00503374;10 µA
0.556793;567.668;-2.79419e-05;3;2071;0.00497668;-0.00503374;10 µA
0.542145;569.133;-2.93488e-05;3;2077;0.00497668;-0.00503374;10 µA
0.527496;570.598;-3.08746e-05;3;2083;0.00497668;-0.00503374;10 µA
0.512848;572.063;-3.25104e-05;3;2089;0.00497668;-0.00503374;10 µA
0.498199;573.528;-3.42621e-05;3;2095;0.00497668;-0.00503374;10 µA
0.483551;574.993;-3.61725e-05;3;2101;0.00497668;-0.00503374;10 µA
0.468903;576.457;-3.82141e-05;3;2107;0.00497668;-0.00503374;10 µA
0.454254;577.922;-4.03961e-05;3;2113;0.00497668;-0.00503374;10 µA
0.439606;579.387;-4.28101e-05;3;2119;0.00497668;-0.00503374;10 µA
0.424957;580.852;-4.54285e-05;3;2125;0.00497668;-0.00503374;10 µA
0.410309;582.317;-4.83032e-05;3;2131;0.00497668;-0.00503374;10 µA
0.39566;583.782;-5.14069e-05;3;2137;0.00497668;-0.00503374;10 µA
0.381012;585.246;-5.47455e-05;3;2143;0.00497668;-0.00503374;10 µA
0.366364;586.711;-5.82306e-05;3;2149;0.00497668;-0.00503374;10 µA
0.351715;588.176;-6.18286e-05;3;2155;0.00497668;-0.00503374;100 µA
0.337067;589.641;-6.53992e-05;3;2161;0.00497668;-0.00503374;100 µA
0.322418;591.106;-6.88171e-05;3;2167;0.00497668;-0.00503374;100 µA
0.30777;592.571;-7.20825e-05;3;2173;0.00497668;-0.00503374;100 µA
0.293121;594.036;-7.49817e-05;3;2179;0.00497668;-0.00503374;100 µA
0.278473;595.5;-7.75452e-05;3;2185;0.00497668;-0.00503374;100 µA
0.263824;596.965;-7.96509e-05;3;2191;0.00497668;-0.00503374;100 µA
0.249176;598.43;-8.14209e-05;3;2197;0.00497668;-0.00503374;100 µA
0.234528;599.895;-8.27332e-05;3;2203;0.00497668;-0.00503374;100 µA
0.219879;601.36;-8.36792e-05;3;2209;0.00497668;-0.00503374;100 µA
0.205231;602.825;-8.43811e-05;3;2215;0.00497668;-0.00503374;100 µA
0.190582;604.289;-8.47168e-05;3;2221;0.00497668;-0.00503374;100 µA
0.175934;605.754;-8.48999e-05;3;2227;0.00497668;-0.00503374;100 µA
0.161285;607.219;-8.47778e-05;3;2233;0.00497668;-0.00503374;100 µA
0.146637;608.684;-8.43811e-05;3;2239;0.00497668;-0.00503374;100 µA
0.131989;610.149;-8.38013e-05;3;2245;0.00497668;-0.00503374;100 µA
0.11734;611.614;-8.30688e-05;3;2251;0.00497668;-0.00503374;100 µA
0.102692;613.079;-8.22144e-05;3;2257;0.00497668;-0.00503374;100 µA
0.0880432;614.543;-8.13293e-05;3;2263;0.00497668;-0.00503374;100 µA
0.0733948;616.008;-8.04443e-05;3;2269;0.00497668;-0.00503374;100 µA
0.0587463;617.473;-7.96509e-05;3;2275;0.00497668;-0.00503374;100 µA
0.0440979;618.938;-7.88879e-05;3;2281;0.00497668;-0.00503374;100 µA
0.0294495;620.403;-7.82776e-05;3;2287;0.00497668;-0.00503374;100 µA
0.014801;621.868;-7.77588e-05;3;2293;0.00497668;-0.00503374;100 µA
0.000152588;623.332;-7.73926e-05;3;2299;0.00497668;-0.00503374;100 µA
-0.0144958;624.797;-7.7179e-05;3;2305;0.00497668;-0.00503374;100 µA
-0.0291443;626.262;-7.71484e-05;3;2311;0.00497668;-0.00503374;100 µA
-0.0437927;627.727;-7.724e-05;3;2317;0.00497668;-0.00503374;100 µA
-0.0584412;629.192;-7.76062e-05;3;2323;0.00497668;-0.00503374;100 µA
-0.0730896;630.657;-7.82471e-05;3;2329;0.00497668;-0.00503374;100 µA
-0.087738;632.122;-7.93152e-05;3;2335;0.00497668;-0.00503374;100 µA
-0.0975037;633.586;-7.24487e-05;3;2341;0.00497668;-0.00503374;100 µA
-0.0828552;635.051;-4.41742e-05;3;2347;0.00497668;-0.00503374;100 µA
-0.0682068;636.516;-2.66174e-05;3;2353;0.00497668;-0.00503374;10 µA
-0.0535583;637.981;-1.39862e-05;3;2359;0.00497668;-0.00503374;10 µA
-0.0389099;639.446;-4.42383e-06;3;2365;0.00497668;-0.00503374;10 µA
-0.0242615;640.911;3.06366e-06;3;2371;0.00497668;-0.00503374;1 µA
-0.00961304;642.375;8.98743e-06;3;2377;0.00497668;-0.00503374;10 µA
0.0050354;643.84;1.38428e-05;3;2383;0.00497668;-0.00503374;10 µA
0.0196838;645.305;1.78558e-05;3;2389;0.00497668;-0.00503374;10 µA
0.0343323;646.77;2.12585e-05;3;2395;0.00497668;-0.00503374;10 µA
0.0489807;648.235;2.4231e-05;3;2401;0.00497668;-0.00503374;10 µA
0.0636292;649.7;2.6889e-05;3;2407;0.00497668;-0.00503374;10 µA
0.0782776;651.165;2.93182e-05;3;2413;0.00497668;-0.00503374;10 µA
0.092926;652.629;3.16772e-05;3;2419;0.00497668;-0.00503374;10 µA
0.107574;654.094;3.39264e-05;3;2425;0.00497668;-0.00503374;10 µA
0.122223;655.559;3.61267e-05;3;2431;0.00497668;-0.00503374;10 µA
0.136871;657.024;3.82965e-05;3;2437;0.00497668;-0.00503374;10 µA
0.15152;658.489;4.04205e-05;3;2443;0.00497668;-0.00503374;10 µA
0.166168;659.954;4.24713e-05;3;2449;0.00497668;-0.00503374;10 µA
0.180817;661.418;4.45831e-05;3;2455;0.00497668;-0.00503374;10 µA
0.195465;662.883;4.66339e-05;3;2461;0.00497668;-0.00503374;10 µA
0.210114;664.348;4.87579e-05;3;2467;0.00497668;-0.00503374;10 µA
0.224762;665.813;5.08698e-05;3;2473;0.00497668;-0.00503374;10 µA
0.23941;667.278;5.29175e-05;3;2479;0.00497668;-0.00503374;10 µA
0.254059;668.743;5.49316e-05;3;2485;0.00497668;-0.00503374;10 µA
0.268707;670.208;5.69031e-05;3;2491;0.00497668;-0.00503374;10 µA
0.283356;671.672;5.88989e-05;3;2497;0.00497668;-0.00503374;10 µA
0.298004;673.137;6.08215e-05;3;2503;0.00497668;-0.00503374;100 µA
0.312653;674.602;6.29883e-05;4;2509;0.00498776;-0.00504525;100 µA
0.327301;676.067;6.51855e-05;4;2515;0.00498776;-0.00504525;100 µA
0.341949;677.532;6.74744e-05;4;2521;0.00498776;-0.00504525;100 µA
0.356598;678.997;6.97327e-05;4;2527;0.00498776;-0.00504525;100 µA
0.371246;680.461;7.19604e-05;4;2533;0.00498776;-0.00504525;100 µA
0.385895;681.926;7.38831e-05;4;2539;0.00498776;-0.00504525;100 µA
0.400543;683.391;7.55005e-05;4;2545;0.00498776;-0.00504525;100 µA
0.415192;684.856;7.65991e-05;4;2551;0.00498776;-0.00504525;100 µA
0.42984;686.321;7.7179e-05;4;2557;0.00498776;-0.00504525;100 µA
0.444489;687.786;7.7301e-05;4;2563;0.00498776;-0.00504525;100 µA
0.459137;689.251;7.69043e-05;4;2569;0.00498776;-0.00504525;100 µA
0.473785;690.715;7.61414e-05;4;2575;0.00498776;-0.00504525;100 µA
0.488434;692.18;7.51343e-05;4;2581;0.00498776;-0.00504525;100 µA
0.503082;693.645;7.39136e-05;4;2587;0.00498776;-0.00504525;100 µA
0.517731;695.11;7.25403e-05;4;2593;0.00498776;-0.00504525;100 µA
0.532379;696.575;7.1228e-05;4;2599;0.00498776;-0.00504525;100 µA
0.547028;698.04;6.98853e-05;4;2605;0.00498776;-0.00504525;100 µA
0.561676;699.504;6.8573e-05;4;2611;0.00498776;-0.00504525;100 µA
0.576324;700.969;6.73218e-05;4;2617;0.00498776;-0.00504525;100 µA
0.590973;702.434;6.61011e-05;4;2623;0.00498776;-0.00504525;100 µA
0.605621;703.899;6.49414e-05;4;2629;0.00498776;-0.00504525;100 µA
0.62027;705.364;6.38428e-05;4;2635;0.00498776;-0.00504525;100 µA
0.634918;706.829;6.27747e-05;4;2641;0.00498776;-0.00504525;100 µA
0.649567;708.294;6.17981e-05;4;2647;0.00498776;-0.00504525;100 µA
0.664215;709.758;6.08826e-05;4;2653;0.00498776;-0.00504525;100 µA
0.678864;711.223;6.00281e-05;4;2659;0.00498776;-0.00504525;100 µA
0.693512;712.688;5.92651e-05;4;2665;0.00498776;-0.00504525;100 µA
0.70816;714.153;5.85327e-05;4;2671;0.00498776;-0.00504525;100 µA
0.722809;715.618;5.79224e-05;4;2677;0.00498776;-0.00504525;100 µA
0.737457;717.083;5.74036e-05;4;2683;0.00498776;-0.00504525;100 µA
0.752106;718.547;5.69763e-05;4;2689;0.00498776;-0.00504525;100 µA
0.766754;720.012;5.67017e-05;4;2695;0.00498776;-0.00504525;100 µA
0.781403;721.477;5.66101e-05;4;2701;0.00498776;-0.00504525;100 µA
0.796051;722.942;5.67322e-05;4;2707;0.00498776;-0.00504525;100 µA
0.810699;724.407;5.71899e-05;4;2713;0.00498776;-0.00504525;100 µA
0.825348;725.872;5.80139e-05;4;2719;0.00498776;-0.00504525;100 µA
0.839996;727.337;5.93567e-05;4;2725;0.00498776;-0.00504525;100 µA
0.849762;728.801;5.41992e-05;4;2731;0.00498776;-0.00504525;100 µA
0.835114;730.266;3.1485e-05;4;2737;0.00498776;-0.00504525;10 µA
0.820465;731.731;1.77734e-05;4;2743;0.00498776;-0.00504525;10 µA
0.805817;733.196;8.23364e-06;4;2749;0.00498776;-0.00504525;10 µA
0.791168;734.661;1.27869e-06;4;2755;0.00498776;-0.00504525;10 µA
0.77652;736.126;-3.85132e-06;4;2761;0.00498776;-0.00504525;1 µA
0.761871;737.59;-7.71484e-06;4;2767;0.00498776;-0.00504525;10 µA
0.747223;739.055;-1.06506e-05;4;2773;0.00498776;-0.00504525;10 µA
0.732574;740.52;-1.29181e-05;4;2779;0.00498776;-0.00504525;10 µA
0.717926;741.985;-1.47339e-05;4;2785;0.00498776;-0.00504525;10 µA
0.703278;743.45;-1.62537e-05;4;2791;0.00498776;-0.00504525;10 µA
0.688629;744.915;-1.75201e-05;4;2797;0.00498776;-0.00504525;10 µA
0.673981;746.38;-1.87286e-05;4;2803;0.00498776;-0.00504525;10 µA
0.659332;747.844;-1.98242e-05;4;2809;0.00498776;-0.00504525;10 µA
0.644684;749.309;-2.09137e-05;4;2815;0.00498776;-0.00504525;10 µA
0.630035;750.774;-2.19879e-05;4;2821;0.00498776;-0.00504525;10 µA
0.615387;752.239;-2.30988e-05;4;2827;0.00498776;-0.00504525;10 µA
0.600739;753.704;-2.42249e-05;4;2833;0.00498776;-0.00504525;10 µA
0.58609;755.169;-2.54089e-05;4;2839;0.00498776;-0.00504525;10 µA
0.571442;756.633;-2.66754e-05;4;2845;0.00498776;-0.00504525;10 µA
0.556793;758.098;-2.79907e-05;4;2851;0.00498776;-0.00504525;10 µA
0.542145;759.563;-2.94037e-05;4;2857;0.00498776;-0.00504525;10 µA
0.527496;761.028;-3.09357e-05;4;2863;0.00498776;-0.00504525;10 µA
0.512848;762.493;-3.25623e-05;4;2869;0.00498776;-0.00504525;10 µA
0.498199;763.958;-3.43353e-05;4;2875;0.00498776;-0.00504525;10 µA
0.483551;765.423;-3.62488e-05;4;2881;0.00498776;-0.00504525;10 µA
0.468903;766.887;-3.83026e-05;4;2887;0.00498776;-0.00504525;10 µA
0.454254;768.352;-4.05365e-05;4;2893;0.00498776;-0.00504525;10 µA
0.439606;769.817;-4.29535e-05;4;2899;0.00498776;-0.00504525;10 µA
0.424957;771.282;-4.5575e-05;4;2905;0.00498776;-0.00504525;10 µA
0.410309;772.747;-4.84711e-05;4;2911;0.00498776;-0.00504525;10 µA
0.39566;774.212;-5.1593e-05;4;2917;0.00498776;-0.00504525;10 µA
0.381012;775.676;-5.49713e-05;4;2923;0.00498776;-0.00504525;10 µA
0.366364;777.141;-5.84381e-05;4;2929;0.00498776;-0.00504525;10 µA
0.351715;778.606;-6.20728e-05;4;2935;0.00498776;-0.00504525;100 µA
0.337067;780.071;-6.56433e-05;4;2941;0.00498776;-0.00504525;100 µA
0.322418;781.536;-6.90918e-05;4;2947;0.00498776;-0.00504525;100 µA
0.30777;783.001;-7.23877e-05;4;2953;0.00498776;-0.00504525;100 µA
0.293121;784.466;-7.53174e-05;4;2959;0.00498776;-0.00504525;100 µA
0.278473;785.93;-7.78809e-05;4;2965;0.00498776;-0.00504525;100 µA
0.263824;787.395;-8.00171e-05;4;2971;0.00498776;-0.00504525;100 µA
0.249176;788.86;-8.17871e-05;4;2977;0.00498776;-0.00504525;100 µA
0.234528;790.325;-8.31299e-05;4;2983;0.00498776;-0.00504525;100 µA
0.219879;791.79;-8.41064e-05;4;2989;0.00498776;-0.00504525;100 µA
0.205231;793.255;-8.47473e-05;4;2995;0.00498776;-0.00504525;100 µA
0.190582;794.719;-8.5083e-05;4;3001;0.00498776;-0.00504525;100 µA
0.175934;796.184;-8.52356e-05;4;3007;0.00498776;-0.00504525;100 µA
0.161285;797.649;-8.51135e-05;4;3013;0.00498776;-0.00504525;100 µA
0.146637;799.114;-8.47473e-05;4;3019;0.00498776;-0.00504525;100 µA
0.131989;800.579;-8.41675e-05;4;3025;0.00498776;-0.00504525;100 µA
0.11734;802.044;-8.34045e-05;4;3031;0.00498776;-0.00504525;100 µA
0.102692;803.509;-8.25195e-05;4;3037;0.00498776;-0.00504525;100 µA
0.0880432;804.973;-8.16345e-05;4;3043;0.00498776;-0.00504525;100 µA
0.0733948;806.438;-8.0719e-05;4;3049;0.00498776;-0.00504525;100 µA
0.0587463;807.903;-7.9895e-05;4;3055;0.00498776;-0.00504525;100 µA
0.0440979;809.368;-7.91321e-05;4;3061;0.00498776;-0.00504525;100 µA
0.0294495;810.833;-7.84607e-05;4;3067;0.00498776;-0.00504525;100 µA
0.014801;812.298;-7.79114e-05;4;3073;0.00498776;-0.00504525;100 µA
0.000152588;813.762;-7.75146e-05;4;3079;0.00498776;-0.00504525;100 µA
-0.0144958;815.227;-7.724e-05;4;3085;0.00498776;-0.00504525;100 µA
-0.0291443;816.692;-7.71484e-05;4;3091;0.00498776;-0.00504525;100 µA
-0.0437927;818.157;-7.72095e-05;4;3097;0.00498776;-0.00504525;100 µA
-0.0584412;819.622;-7.75146e-05;4;3103;0.00498776;-0.00504525;100 µA
-0.0730896;821.087;-7.8125E-05;4;3109;0.00498776;-0.00504525;100 µA
-0.087738;822.552;-7.90405e-05;4;3115;0.00498776;-0.00504525;100 µA
-0.0975037;824.016;-7.20825e-05;4;3121;0.00498776;-0.00504525;100 µA
-0.0828552;825.481;-4.37073e-05;4;3127;0.00498776;-0.00504525;100 µA
-0.0682068;826.946;-2.61719e-05;4;3133;0.00498776;-0.00504525;10 µA
-0.0535583;828.411;-1.35681e-05;4;3139;0.00498776;-0.00504525;10 µA
-0.0389099;829.876;-4.03717e-06;4;3145;0.00498776;-0.00504525;10 µA
-0.0242615;831.341;3.39752e-06;4;3151;0.00498776;-0.00504525;1 µA
-0.00961304;832.805;9.27124e-06;4;3157;0.00498776;-0.00504525;10 µA
0.0050354;834.27;1.40686e-05;4;3163;0.00498776;-0.00504525;10 µA
0.0196838;835.735;1.80481e-05;4;3169;0.00498776;-0.00504525;10 µA
0.0343323;837.2;2.14172e-05;4;3175;0.00498776;-0.00504525;10 µA
0.0489807;838.665;2.43835e-05;4;3181;0.00498776;-0.00504525;10 µA
0.0636292;840.13;2.70355e-05;4;3187;0.00498776;-0.00504525;10 µA
0.0782776;841.595;2.94556e-05;4;3193;0.00498776;-0.00504525;10 µA
0.092926;843.059;3.17993e-05;4;3199;0.00498776;-0.00504525;10 µA
0.107574;844.524;3.40637e-05;4;3205;0.00498776;-0.00504525;10 µA
0.122223;845.989;3.62549e-05;4;3211;0.00498776;-0.00504525;10 µA
0.136871;847.454;3.84216e-05;4;3217;0.00498776;-0.00504525;10 µA
0.15152;848.919;4.05273e-05;4;3223;0.00498776;-0.00504525;10 µA
0.166168;850.384;4.26178e-05;4;3229;0.00498776;-0.00504525;10 µA
0.180817;851.848;4.47205e-05;4;3235;0.00498776;-0.00504525;10 µA
0.195465;853.313;4.67804e-05;4;3241;0.00498776;-0.00504525;10 µA
0.210114;854.778;4.89197e-05;4;3247;0.00498776;-0.00504525;10 µA
0.224762;856.243;5.10315e-05;4;3253;0.00498776;-0.00504525;10 µA
0.23941;857.708;5.30853e-05;4;3259;0.00498776;-0.00504525;10 µA
0.254059;859.173;5.51056e-05;4;3265;0.00498776;-0.00504525;10 µA
0.268707;860.637;5.71381e-05;4;3271;0.00498776;-0.00504525;10 µA
0.283356;862.102;5.914e-05;4;3277;0.00498776;-0.00504525;10 µA
0.298004;863.567;6.10657e-05;4;3283;0.00498776;-0.00504525;100 µA
0.312653;865.032;6.32324e-05;5;3289;0.00499831;-0.00505588;100 µA
0.327301;866.497;6.54602e-05;5;3295;0.00499831;-0.00505588;100 µA
0.341949;867.962;6.7749e-05;5;3301;0.00499831;-0.00505588;100 µA
0.356598;869.427;7.00073e-05;5;3307;0.00499831;-0.00505588;100 µA
0.371246;870.891;7.22656e-05;5;3313;0.00499831;-0.00505588;100 µA
0.385895;872.356;7.421875E-05;5;3319;0.00499831;-0.00505588;100 µA
0.400543;873.821;7.58057e-05;5;3325;0.00499831;-0.00505588;100 µA
0.415192;875.286;7.69348e-05;5;3331;0.00499831;-0.00505588;100 µA
0.42984;876.751;7.75146e-05;5;3337;0.00499831;-0.00505588;100 µA
0.444489;878.216;7.76367e-05;5;3343;0.00499831;-0.00505588;100 µA
0.459137;879.68;7.72705e-05;5;3349;0.00499831;-0.00505588;100 µA
0.473785;881.145;7.64771e-05;5;3355;0.00499831;-0.00505588;100 µA
0.488434;882.61;7.54395e-05;5;3361;0.00499831;-0.00505588;100 µA
0.503082;884.075;7.41882e-05;5;3367;0.00499831;-0.00505588;100 µA
0.517731;885.54;7.28455e-05;5;3373;0.00499831;-0.00505588;100 µA
0.532379;887.005;7.15027e-05;5;3379;0.00499831;-0.00505588;100 µA
0.547028;888.47;7.01294e-05;5;3385;0.00499831;-0.00505588;100 µA
0.561676;889.934;6.87561e-05;5;3391;0.00499831;-0.00505588;100 µA
0.576324;891.399;6.75049e-05;5;3397;0.00499831;-0.00505588;100 µA
0.590973;892.864;6.62537e-05;5;3403;0.00499831;-0.00505588;100 µA
0.605621;894.329;6.50635e-05;5;3409;0.00499831;-0.00505588;100 µA
0.62027;895.794;6.39343e-05;5;3415;0.00499831;-0.00505588;100 µA
0.634918;897.259;6.28662e-05;5;3421;0.00499831;-0.00505588;100 µA
0.649567;898.723;6.18591e-05;5;3427;0.00499831;-0.00505588;100 µA
0.664215;900.188;6.09131e-05;5;3433;0.00499831;-0.00505588;100 µA
0.678864;901.653;6.00586e-05;5;3439;0.00499831;-0.00505588;100 µA
0.693512;903.118;5.92651e-05;5;3445;0.00499831;-0.00505588;100 µA
0.70816;904.583;5.85327e-05;5;3451;0.00499831;-0.00505588;100 µA
0.722809;906.048;5.79224e-05;5;3457;0.00499831;-0.00505588;100 µA
0.737457;907.513;5.7373e-05;5;3463;0.00499831;-0.00505588;100 µA
0.752106;908.977;5.69153e-05;5;3469;0.00499831;-0.00505588;100 µA
0.766754;910.442;5.66101e-05;5;3475;0.00499831;-0.00505588;100 µA
0.781403;911.907;5.6488e-05;5;3481;0.00499831;-0.00505588;100 µA
0.796051;913.372;5.66406e-05;5;3487;0.00499831;-0.00505588;100 µA
0.810699;914.837;5.70374e-05;5;3493;0.00499831;-0.00505588;100 µA
0.825348;916.302;5.78003e-05;5;3499;0.00499831;-0.00505588;100 µA
0.839996;917.766;5.91125e-05;5;3505;0.00499831;-0.00505588;100 µA
0.849762;919.231;5.38635e-05;5;3511;0.00499831;-0.00505588;100 µA
0.835114;920.696;3.11279e-05;5;3517;0.00499831;-0.00505588;10 µA
0.820465;922.161;1.74469e-05;5;3523;0.00499831;-0.00505588;10 µA
0.805817;923.626;7.95593e-06;5;3529;0.00499831;-0.00505588;10 µA
0.791168;925.091;1.0614e-06;5;3535;0.00499831;-0.00505588;10 µA
0.77652;926.556;-4.039e-06;5;3541;0.00499831;-0.00505588;1 µA
0.761871;928.02;-7.86133e-06;5;3547;0.00499831;-0.00505588;10 µA
0.747223;929.485;-1.07697e-05;5;3553;0.00499831;-0.00505588;10 µA
0.732574;930.95;-1.3031e-05;5;3559;0.00499831;-0.00505588;10 µA
0.717926;932.415;-1.48132e-05;5;3565;0.00499831;-0.00505588;10 µA
0.703278;933.88;-1.63025e-05;5;3571;0.00499831;-0.00505588;10 µA
0.688629;935.345;-1.75873e-05;5;3577;0.00499831;-0.00505588;10 µA
0.673981;936.809;-1.87592e-05;5;3583;0.00499831;-0.00505588;10 µA
0.659332;938.274;-1.98669e-05;5;3589;0.00499831;-0.00505588;10 µA
0.644684;939.739;-2.09381e-05;5;3595;0.00499831;-0.00505588;10 µA
0.630035;941.204;-2.20245e-05;5;3601;0.00499831;-0.00505588;10 µA
0.615387;942.669;-2.3114e-05;5;3607;0.00499831;-0.00505588;10 µA
0.600739;944.134;-2.42737e-05;5;3613;0.00499831;-0.00505588;10 µA
0.58609;945.599;-2.54425e-05;5;3619;0.00499831;-0.00505588;10 µA
0.571442;947.063;-2.6709e-05;5;3625;0.00499831;-0.00505588;10 µA
0.556793;948.528;-2.80365e-05;5;3631;0.00499831;-0.00505588;10 µA
0.542145;949.993;-2.94342e-05;5;3637;0.00499831;-0.00505588;10 µA
0.527496;951.458;-3.09906e-05;5;3643;0.00499831;-0.00505588;10 µA
0.512848;952.923;-3.26355e-05;5;3649;0.00499831;-0.00505588;10 µA
0.498199;954.388;-3.44177e-05;5;3655;0.00499831;-0.00505588;10 µA
0.483551;955.852;-3.63281e-05;5;3661;0.00499831;-0.00505588;10 µA
0.468903;957.317;-3.84033e-05;5;3667;0.00499831;-0.00505588;10 µA
0.454254;958.782;-4.06311e-05;5;3673;0.00499831;-0.00505588;10 µA
0.439606;960.247;-4.30725e-05;5;3679;0.00499831;-0.00505588;10 µA
0.424957;961.712;-4.57001e-05;5;3685;0.00499831;-0.00505588;10 µA
0.410309;963.177;-4.86389e-05;5;3691;0.00499831;-0.00505588;10 µA
0.39566;964.642;-5.17731e-05;5;3697;0.00499831;-0.00505588;10 µA
0.381012;966.106;-5.51422e-05;5;3703;0.00499831;-0.00505588;10 µA
0.366364;967.571;-5.86945e-05;5;3709;0.00499831;-0.00505588;10 µA
0.351715;969.036;-6.23169e-05;5;3715;0.00499831;-0.00505588;100 µA
0.337067;970.501;-6.5918e-05;5;3721;0.00499831;-0.00505588;100 µA
0.322418;971.966;-6.9397e-05;5;3727;0.00499831;-0.00505588;100 µA
0.30777;973.431;-7.26624e-05;5;3733;0.00499831;-0.00505588;100 µA
0.293121;974.895;-7.56531e-05;5;3739;0.00499831;-0.00505588;100 µA
0.278473;976.36;-7.8186e-05;5;3745;0.00499831;-0.00505588;100 µA
0.263824;977.825;-8.03833e-05;5;3751;0.00499831;-0.00505588;100 µA
0.249176;979.29;-8.21228e-05;5;3757;0.00499831;-0.00505588;100 µA
0.234528;980.755;-8.34656e-05;5;3763;0.00499831;-0.00505588;100 µA
0.219879;982.22;-8.44727e-05;5;3769;0.00499831;-0.00505588;100 µA
0.205231;983.685;-8.51135e-05;5;3775;0.00499831;-0.00505588;100 µA
0.190582;985.149;-8.54492e-05;5;3781;0.00499831;-0.00505588;100 µA
0.175934;986.614;-8.56323e-05;5;3787;0.00499831;-0.00505588;100 µA
0.161285;988.079;-8.54797e-05;5;3793;0.00499831;-0.00505588;100 µA
0.146637;989.544;-8.5083e-05;5;3799;0.00499831;-0.00505588;100 µA
0.131989;991.009;-8.44421e-05;5;3805;0.00499831;-0.00505588;100 µA
0.11734;992.474;-8.36792e-05;5;3811;0.00499831;-0.00505588;100 µA
0.102692;993.938;-8.27942e-05;5;3817;0.00499831;-0.00505588;100 µA
0.0880432;995.403;-8.18787e-05;5;3823;0.00499831;-0.00505588;100 µA
0.0733948;996.868;-8.09326e-05;5;3829;0.00499831;-0.00505588;100 µA
0.0587463;998.333;-8.00781e-05;5;3835;0.00499831;-0.00505588;100 µA
0.0440979;999.798;-7.92847e-05;5;3841;0.00499831;-0.00505588;100 µA
0.0294495;1001.26;-7.85828e-05;5;3847;0.00499831;-0.00505588;100 µA
0.014801;1002.73;-7.80029e-05;5;3853;0.00499831;-0.00505588;100 µA
0.000152588;1004.19;-7.75757e-05;5;3859;0.00499831;-0.00505588;100 µA
-0.0144958;1005.66;-7.72705e-05;5;3865;0.00499831;-0.00505588;100 µA
-0.0291443;1007.12;-7.71484e-05;5;3871;0.00499831;-0.00505588;100 µA
-0.0437927;1008.59;-7.7179e-05;5;3877;0.00499831;-0.00505588;100 µA
-0.0584412;1010.05;-7.74231e-05;5;3883;0.00499831;-0.00505588;100 µA
-0.0730896;1011.52;-7.79419e-05;5;3889;0.00499831;-0.00505588;100 µA
-0.087738;1012.98;-7.87964e-05;5;3895;0.00499831;-0.00505588;100 µA
-0.0975037;1014.45;-7.17163e-05;5;3901;0.00499831;-0.00505588;100 µA
-0.0828552;1015.91;-4.33228e-05;5;3907;0.00499831;-0.00505588;100 µA
-0.0682068;1017.38;-2.5766e-05;5;3913;0.00499831;-0.00505588;10 µA
-0.0535583;1018.84;-1.31622e-05;5;3919;0.00499831;-0.00505588;10 µA
-0.0389099;1020.31;-3.66516e-06;5;3925;0.00499831;-0.00505588;10 µA
-0.0242615;1021.77;3.69415e-06;5;3931;0.00499831;-0.00505588;1 µA
-0.00961304;1023.24;9.54285e-06;5;3937;0.00499831;-0.00505588;10 µA
0.0050354;1024.7;1.42975e-05;5;3943;0.00499831;-0.00505588;10 µA
0.0196838;1026.17;1.82343e-05;5;3949;0.00499831;-0.00505588;10 µA
0.0343323;1027.63;2.15912e-05;5;3955;0.00499831;-0.00505588;10 µA
0.0489807;1029.09;2.45239e-05;5;3961;0.00499831;-0.00505588;10 µA
0.0636292;1030.56;2.71576e-05;5;3967;0.00499831;-0.00505588;10 µA
0.0782776;1032.02;2.95593e-05;5;3973;0.00499831;-0.00505588;10 µA
0.092926;1033.49;3.18848e-05;5;3979;0.00499831;-0.00505588;10 µA
0.107574;1034.95;3.41705e-05;5;3985;0.00499831;-0.00505588;10 µA
0.122223;1036.42;3.63739e-05;5;3991;0.00499831;-0.00505588;10 µA
0.136871;1037.88;3.85284e-05;5;3997;0.00499831;-0.00505588;10 µA
0.15152;1039.35;4.06555e-05;5;4003;0.00499831;-0.00505588;10 µA
0.166168;1040.81;4.27246e-05;5;4009;0.00499831;-0.00505588;10 µA
0.180817;1042.28;4.48151e-05;5;4015;0.00499831;-0.00505588;10 µA
0.195465;1043.74;4.69025e-05;5;4021;0.00499831;-0.00505588;10 µA
0.210114;1045.21;4.9054e-05;5;4027;0.00499831;-0.00505588;10 µA
0.224762;1046.67;5.1181e-05;5;4033;0.00499831;-0.00505588;10 µA
0.23941;1048.14;5.3241e-05;5;4039;0.00499831;-0.00505588;10 µA
0.254059;1049.6;5.5307e-05;5;4045;0.00499831;-0.00505588;10 µA
0.268707;1051.07;5.73029e-05;5;4051;0.00499831;-0.00505588;10 µA
0.283356;1052.53;5.9314e-05;5;4057;0.00499831;-0.00505588;10 µA
0.298004;1054;6.12793e-05;5;4063;0.00499831;-0.00505588;100 µA
0.300446;1054.24;6.16455e-05;5;4064;0.00499831;-0.00505588;100 µA