File: 20mV-Mxene3_2.txt
Potential applied (V);Time (s);WE(1).Current (A);Scan;Index;Q+;Q-;Current range;Overload
-0.0975037;10.2933;-0.000215393;1;1;0.00526433;-0.00465483;10 mA;
-0.0828552;11.0258;-0.000130066;1;7;0.00526433;-0.00465483;1 mA;
-0.0682068;11.7582;-9.04541e-05;1;13;0.00526433;-0.00465483;100 µA;
-0.0535583;12.4906;-6.35071e-05;1;19;0.00526433;-0.00465483;100 µA;
-0.0389099;13.223;-4.26636e-05;1;25;0.00526433;-0.00465483;100 µA;
-0.0242615;13.9554;-2.57751e-05;1;31;0.00526433;-0.00465483;10 µA;
-0.00961304;14.6879;-1.18134e-05;1;37;0.00526433;-0.00465483;10 µA;
0.0050354;15.4203;-3.23486e-08;1;43;0.00526433;-0.00465483;10 µA;
0.0196838;16.1527;1.00403e-05;1;49;0.00526433;-0.00465483;10 µA;
0.0343323;16.8851;1.87683e-05;1;55;0.00526433;-0.00465483;10 µA;
0.0489807;17.6175;2.63977e-05;1;61;0.00526433;-0.00465483;10 µA;
0.0636292;18.35;3.31146e-05;1;67;0.00526433;-0.00465483;10 µA;
0.0782776;19.0824;3.90869e-05;1;73;0.00526433;-0.00465483;10 µA;
0.092926;19.8148;4.45953e-05;1;79;0.00526433;-0.00465483;10 µA;
0.107574;20.5472;4.96399e-05;1;85;0.00526433;-0.00465483;10 µA;
0.122223;21.2796;5.43396e-05;1;91;0.00526433;-0.00465483;10 µA;
0.136871;22.0121;5.87769e-05;1;97;0.00526433;-0.00465483;10 µA;
0.15152;22.7445;6.28662e-05;1;103;0.00526433;-0.00465483;100 µA;
0.166168;23.4769;6.68335e-05;1;109;0.00526433;-0.00465483;100 µA;
0.180817;24.2093;7.07092e-05;1;115;0.00526433;-0.00465483;100 µA;
0.195465;24.9417;7.44324e-05;1;121;0.00526433;-0.00465483;100 µA;
0.210114;25.6742;7.8125E-05;1;127;0.00526433;-0.00465483;100 µA;
0.224762;26.4066;8.16956e-05;1;133;0.00526433;-0.00465483;100 µA;
0.23941;27.139;8.51746e-05;1;139;0.00526433;-0.00465483;100 µA;
0.254059;27.8714;8.8623e-05;1;145;0.00526433;-0.00465483;100 µA;
0.268707;28.6038;9.198e-05;1;151;0.00526433;-0.00465483;100 µA;
0.283356;29.3363;9.53369e-05;1;157;0.00526433;-0.00465483;100 µA;
0.298004;30.0687;9.86938e-05;1;163;0.00526433;-0.00465483;100 µA;
0.312653;30.8011;0.000102142;1;169;0.00526433;-0.00465483;100 µA;
0.327301;31.5335;0.000105682;1;175;0.00526433;-0.00465483;100 µA;
0.341949;32.2659;0.000109283;1;181;0.00526433;-0.00465483;100 µA;
0.356598;32.9984;0.000112915;1;187;0.00526433;-0.00465483;100 µA;
0.371246;33.7308;0.000116577;1;193;0.00526433;-0.00465483;100 µA;
0.385895;34.4632;0.000120209;1;199;0.00526433;-0.00465483;100 µA;
0.400543;35.1956;0.000123535;1;205;0.00526433;-0.00465483;100 µA;
0.415192;35.928;0.000126556;1;211;0.00526433;-0.00465483;100 µA;
0.42984;36.6605;0.000129059;1;217;0.00526433;-0.00465483;100 µA;
0.444489;37.3929;0.000131104;1;223;0.00526433;-0.00465483;100 µA;
0.459137;38.1253;0.000132568;1;229;0.00526433;-0.00465483;100 µA;
0.473785;38.8577;0.000133453;1;235;0.00526433;-0.00465483;100 µA;
0.488434;39.5901;0.00013382;1;241;0.00526433;-0.00465483;100 µA;
0.503082;40.3226;0.000133759;1;247;0.00526433;-0.00465483;100 µA;
0.517731;41.055;0.000133362;1;253;0.00526433;-0.00465483;100 µA;
0.532379;41.7874;0.00013266;1;259;0.00526433;-0.00465483;100 µA;
0.547028;42.5198;0.000131805;1;265;0.00526433;-0.00465483;100 µA;
0.561676;43.2522;0.000130798;1;271;0.00526433;-0.00465483;100 µA;
0.576324;43.9847;0.000129639;1;277;0.00526433;-0.00465483;100 µA;
0.590973;44.7171;0.000128448;1;283;0.00526433;-0.00465483;100 µA;
0.605621;45.4495;0.000127106;1;289;0.00526433;-0.00465483;100 µA;
0.62027;46.1819;0.000125732;1;295;0.00526433;-0.00465483;100 µA;
0.634918;46.9143;0.000124298;1;301;0.00526433;-0.00465483;100 µA;
0.649567;47.6468;0.000122894;1;307;0.00526433;-0.00465483;100 µA;
0.664215;48.3792;0.00012146;1;313;0.00526433;-0.00465483;100 µA;
0.678864;49.1116;0.000120026;1;319;0.00526433;-0.00465483;100 µA;
0.693512;49.844;0.000118622;1;325;0.00526433;-0.00465483;100 µA;
0.70816;50.5764;0.0001171875;1;331;0.00526433;-0.00465483;100 µA;
0.722809;51.3089;0.000115875;1;337;0.00526433;-0.00465483;100 µA;
0.737457;52.0413;0.000114624;1;343;0.00526433;-0.00465483;100 µA;
0.752106;52.7737;0.000113434;1;349;0.00526433;-0.00465483;100 µA;
0.766754;53.5061;0.000112366;1;355;0.00526433;-0.00465483;100 µA;
0.781403;54.2385;0.00011142;1;361;0.00526433;-0.00465483;100 µA;
0.796051;54.971;0.000110779;1;367;0.00526433;-0.00465483;100 µA;
0.810699;55.7034;0.000110413;1;373;0.00526433;-0.00465483;100 µA;
0.825348;56.4358;0.000110443;1;379;0.00526433;-0.00465483;100 µA;
0.839996;57.1682;0.000110992;1;385;0.00526433;-0.00465483;100 µA;
0.849762;57.9006;0.000103363;1;391;0.00526433;-0.00465483;100 µA;
0.835114;58.6331;7.18079e-05;1;397;0.00526433;-0.00465483;100 µA;
0.820465;59.3655;5.06897e-05;1;403;0.00526433;-0.00465483;100 µA;
0.805817;60.0979;3.45947e-05;1;409;0.00526433;-0.00465483;10 µA;
0.791168;60.8303;2.1579e-05;1;415;0.00526433;-0.00465483;10 µA;
0.77652;61.5627;1.09833e-05;1;421;0.00526433;-0.00465483;10 µA;
0.761871;62.2952;2.17834e-06;1;427;0.00526433;-0.00465483;10 µA;
0.747223;63.0276;-5.16541e-06;1;433;0.00526433;-0.00465483;1 µA;
0.732574;63.76;-1.1319e-05;1;439;0.00526433;-0.00465483;10 µA;
0.717926;64.4924;-1.65527e-05;1;445;0.00526433;-0.00465483;10 µA;
0.703278;65.2248;-2.10175e-05;1;451;0.00526433;-0.00465483;10 µA;
0.688629;65.9573;-2.48688e-05;1;457;0.00526433;-0.00465483;10 µA;
0.673981;66.6897;-2.82654e-05;1;463;0.00526433;-0.00465483;10 µA;
0.659332;67.4221;-3.12714e-05;1;469;0.00526433;-0.00465483;10 µA;
0.644684;68.1545;-3.39996e-05;1;475;0.00526433;-0.00465483;10 µA;
0.630035;68.8869;-3.65448e-05;1;481;0.00526433;-0.00465483;10 µA;
0.615387;69.6194;-3.89526e-05;1;487;0.00526433;-0.00465483;10 µA;
0.600739;70.3518;-4.12567e-05;1;493;0.00526433;-0.00465483;10 µA;
0.58609;71.0842;-4.3515e-05;1;499;0.00526433;-0.00465483;10 µA;
0.571442;71.8166;-4.5752e-05;1;505;0.00526433;-0.00465483;10 µA;
0.556793;72.549;-4.80194e-05;1;511;0.00526433;-0.00465483;10 µA;
0.542145;73.2815;-5.03204e-05;1;517;0.00526433;-0.00465483;10 µA;
0.527496;74.0139;-5.27435e-05;1;523;0.00526433;-0.00465483;10 µA;
0.512848;74.7463;-5.52094e-05;1;529;0.00526433;-0.00465483;10 µA;
0.498199;75.4787;-5.78156e-05;1;535;0.00526433;-0.00465483;10 µA;
0.483551;76.2111;-6.06384e-05;1;541;0.00526433;-0.00465483;100 µA;
0.468903;76.9436;-6.35376e-05;1;547;0.00526433;-0.00465483;100 µA;
0.454254;77.676;-6.66199e-05;1;553;0.00526433;-0.00465483;100 µA;
0.439606;78.4084;-6.99158e-05;1;559;0.00526433;-0.00465483;100 µA;
0.424957;79.1408;-7.33948e-05;1;565;0.00526433;-0.00465483;100 µA;
0.410309;79.8732;-7.7179e-05;1;571;0.00526433;-0.00465483;100 µA;
0.39566;80.6057;-8.12073e-05;1;577;0.00526433;-0.00465483;100 µA;
0.381012;81.3381;-8.55103e-05;1;583;0.00526433;-0.00465483;100 µA;
0.366364;82.0705;-9.00269e-05;1;589;0.00526433;-0.00465483;100 µA;
0.351715;82.8029;-9.47266e-05;1;595;0.00526433;-0.00465483;100 µA;
0.337067;83.5353;-9.95178e-05;1;601;0.00526433;-0.00465483;100 µA;
0.322418;84.2678;-0.00010437;1;607;0.00526433;-0.00465483;100 µA;
0.30777;85.0002;-0.000109131;1;613;0.00526433;-0.00465483;100 µA;
0.293121;85.7326;-0.000113708;1;619;0.00526433;-0.00465483;100 µA;
0.278473;86.465;-0.000118042;1;625;0.00526433;-0.00465483;100 µA;
0.263824;87.1974;-0.000122101;1;631;0.00526433;-0.00465483;100 µA;
0.249176;87.9299;-0.000125793;1;637;0.00526433;-0.00465483;100 µA;
0.234528;88.6623;-0.00012915;1;643;0.00526433;-0.00465483;100 µA;
0.219879;89.3947;-0.00013208;1;649;0.00526433;-0.00465483;100 µA;
0.205231;90.1271;-0.000134674;1;655;0.00526433;-0.00465483;100 µA;
0.190582;90.8595;-0.000136902;1;661;0.00526433;-0.00465483;100 µA;
0.175934;91.592;-0.000138855;1;667;0.00526433;-0.00465483;100 µA;
0.161285;92.3244;-0.000140503;1;673;0.00526433;-0.00465483;100 µA;
0.146637;93.0568;-0.000141785;1;679;0.00526433;-0.00465483;100 µA;
0.131989;93.7892;-0.000142761;1;685;0.00526433;-0.00465483;100 µA;
0.11734;94.5216;-0.000143494;1;691;0.00526433;-0.00465483;100 µA;
0.102692;95.2541;-0.000143829;1;697;0.00526433;-0.00465483;100 µA;
0.0880432;95.9865;-0.000144073;1;703;0.00526433;-0.00465483;100 µA;
0.0733948;96.7189;-0.000144043;1;709;0.00526433;-0.00465483;100 µA;
0.0587463;97.4513;-0.000143951;1;715;0.00526433;-0.00465483;100 µA;
0.0440979;98.1837;-0.000143738;1;721;0.00526433;-0.00465483;100 µA;
0.0294495;98.9162;-0.000143433;1;727;0.00526433;-0.00465483;100 µA;
0.014801;99.6486;-0.000143097;1;733;0.00526433;-0.00465483;100 µA;
0.000152588;100.381;-0.000142792;1;739;0.00526433;-0.00465483;100 µA;
-0.0144958;101.113;-0.000142548;1;745;0.00526433;-0.00465483;100 µA;
-0.0291443;101.846;-0.000142334;1;751;0.00526433;-0.00465483;100 µA;
-0.0437927;102.578;-0.000142334;1;757;0.00526433;-0.00465483;100 µA;
-0.0584412;103.311;-0.000142456;1;763;0.00526433;-0.00465483;100 µA;
-0.0730896;104.043;-0.000142853;1;769;0.00526433;-0.00465483;100 µA;
-0.087738;104.776;-0.000143646;1;775;0.00526433;-0.00465483;100 µA;
-0.0975037;105.508;-0.000135132;1;781;0.00526433;-0.00465483;100 µA;
-0.0828552;106.24;-9.88464e-05;1;787;0.00526433;-0.00465483;100 µA;
-0.0682068;106.973;-7.3822e-05;1;793;0.00526433;-0.00465483;100 µA;
-0.0535583;107.705;-5.38025e-05;1;799;0.00526433;-0.00465483;100 µA;
-0.0389099;108.438;-3.72711e-05;1;805;0.00526433;-0.00465483;100 µA;
-0.0242615;109.17;-2.32941e-05;1;811;0.00526433;-0.00465483;10 µA;
-0.00961304;109.902;-1.12183e-05;1;817;0.00526433;-0.00465483;10 µA;
0.0050354;110.635;-4.6936e-07;1;823;0.00526433;-0.00465483;10 µA;
0.0196838;111.367;8.8623e-06;1;829;0.00526433;-0.00465483;10 µA;
0.0343323;112.1;1.71509e-05;1;835;0.00526433;-0.00465483;10 µA;
0.0489807;112.832;2.44171e-05;1;841;0.00526433;-0.00465483;10 µA;
0.0636292;113.565;3.09601e-05;1;847;0.00526433;-0.00465483;10 µA;
0.0782776;114.297;3.68835e-05;1;853;0.00526433;-0.00465483;10 µA;
0.092926;115.029;4.23553e-05;1;859;0.00526433;-0.00465483;10 µA;
0.107574;115.762;4.74365e-05;1;865;0.00526433;-0.00465483;10 µA;
0.122223;116.494;5.21942e-05;1;871;0.00526433;-0.00465483;10 µA;
0.136871;117.227;5.67902e-05;1;877;0.00526433;-0.00465483;10 µA;
0.15152;117.959;6.10046e-05;1;883;0.00526433;-0.00465483;100 µA;
0.166168;118.691;6.51245e-05;1;889;0.00526433;-0.00465483;100 µA;
0.180817;119.424;6.92139e-05;1;895;0.00526433;-0.00465483;100 µA;
0.195465;120.156;7.31201e-05;1;901;0.00526433;-0.00465483;100 µA;
0.210114;120.889;7.69958e-05;1;907;0.00526433;-0.00465483;100 µA;
0.224762;121.621;8.08411e-05;1;913;0.00526433;-0.00465483;100 µA;
0.23941;122.354;8.45337e-05;1;919;0.00526433;-0.00465483;100 µA;
0.254059;123.086;8.81653e-05;1;925;0.00526433;-0.00465483;100 µA;
0.268707;123.818;9.17053e-05;1;931;0.00526433;-0.00465483;100 µA;
0.283356;124.551;9.51538e-05;1;937;0.00526433;-0.00465483;100 µA;
0.298004;125.283;9.86023e-05;1;943;0.00526433;-0.00465483;100 µA;
0.312653;126.016;0.000102112;2;949;0.00432198;-0.00434468;100 µA;
0.327301;126.748;0.00010556;2;955;0.00432198;-0.00434468;100 µA;
0.341949;127.481;0.000109161;2;961;0.00432198;-0.00434468;100 µA;
0.356598;128.213;0.000112732;2;967;0.00432198;-0.00434468;100 µA;
0.371246;128.945;0.000116364;2;973;0.00432198;-0.00434468;100 µA;
0.385895;129.678;0.000119904;2;979;0.00432198;-0.00434468;100 µA;
0.400543;130.41;0.000123199;2;985;0.00432198;-0.00434468;100 µA;
0.415192;131.143;0.000126129;2;991;0.00432198;-0.00434468;100 µA;
0.42984;131.875;0.000128479;2;997;0.00432198;-0.00434468;100 µA;
0.444489;132.607;0.000130371;2;1003;0.00432198;-0.00434468;100 µA;
0.459137;133.34;0.000131653;2;1009;0.00432198;-0.00434468;100 µA;
0.473785;134.072;0.000132294;2;1015;0.00432198;-0.00434468;100 µA;
0.488434;134.805;0.000132507;2;1021;0.00432198;-0.00434468;100 µA;
0.503082;135.537;0.000132263;2;1027;0.00432198;-0.00434468;100 µA;
0.517731;136.27;0.000131653;2;1033;0.00432198;-0.00434468;100 µA;
0.532379;137.002;0.000130859;2;1039;0.00432198;-0.00434468;100 µA;
0.547028;137.734;0.000129791;2;1045;0.00432198;-0.00434468;100 µA;
0.561676;138.467;0.000128662;2;1051;0.00432198;-0.00434468;100 µA;
0.576324;139.199;0.000127411;2;1057;0.00432198;-0.00434468;100 µA;
0.590973;139.932;0.000126068;2;1063;0.00432198;-0.00434468;100 µA;
0.605621;140.664;0.000124634;2;1069;0.00432198;-0.00434468;100 µA;
0.62027;141.397;0.000123138;2;1075;0.00432198;-0.00434468;100 µA;
0.634918;142.129;0.000121613;2;1081;0.00432198;-0.00434468;100 µA;
0.649567;142.861;0.000120087;2;1087;0.00432198;-0.00434468;100 µA;
0.664215;143.594;0.000118591;2;1093;0.00432198;-0.00434468;100 µA;
0.678864;144.326;0.000117096;2;1099;0.00432198;-0.00434468;100 µA;
0.693512;145.059;0.000115601;2;1105;0.00432198;-0.00434468;100 µA;
0.70816;145.791;0.000114197;2;1111;0.00432198;-0.00434468;100 µA;
0.722809;146.523;0.000112823;2;1117;0.00432198;-0.00434468;100 µA;
0.737457;147.256;0.000111542;2;1123;0.00432198;-0.00434468;100 µA;
0.752106;147.988;0.000110352;2;1129;0.00432198;-0.00434468;100 µA;
0.766754;148.721;0.000109283;2;1135;0.00432198;-0.00434468;100 µA;
0.781403;149.453;0.000108398;2;1141;0.00432198;-0.00434468;100 µA;
0.796051;150.186;0.000107758;2;1147;0.00432198;-0.00434468;100 µA;
0.810699;150.918;0.000107391;2;1153;0.00432198;-0.00434468;100 µA;
0.825348;151.65;0.000107422;2;1159;0.00432198;-0.00434468;100 µA;
0.839996;152.383;0.000108002;2;1165;0.00432198;-0.00434468;100 µA;
0.849762;153.115;0.00010025;2;1171;0.00432198;-0.00434468;100 µA;
0.835114;153.848;6.84509e-05;2;1177;0.00432198;-0.00434468;100 µA;
0.820465;154.58;4.73816e-05;2;1183;0.00432198;-0.00434468;100 µA;
0.805817;155.312;3.14087e-05;2;1189;0.00432198;-0.00434468;10 µA;
0.791168;156.045;1.85852e-05;2;1195;0.00432198;-0.00434468;10 µA;
0.77652;156.777;8.18787e-06;2;1201;0.00432198;-0.00434468;10 µA;
0.761871;157.51;-4.01001e-07;2;1207;0.00432198;-0.00434468;10 µA;
0.747223;158.242;-7.49817e-06;2;1213;0.00432198;-0.00434468;10 µA;
0.732574;158.975;-1.34216e-05;2;1219;0.00432198;-0.00434468;10 µA;
0.717926;159.707;-1.84387e-05;2;1225;0.00432198;-0.00434468;10 µA;
0.703278;160.439;-2.26898e-05;2;1231;0.00432198;-0.00434468;10 µA;
0.688629;161.172;-2.63611e-05;2;1237;0.00432198;-0.00434468;10 µA;
0.673981;161.904;-2.95898e-05;2;1243;0.00432198;-0.00434468;10 µA;
0.659332;162.637;-3.24554e-05;2;1249;0.00432198;-0.00434468;10 µA;
0.644684;163.369;-3.50677e-05;2;1255;0.00432198;-0.00434468;10 µA;
0.630035;164.102;-3.75E-05;2;1261;0.00432198;-0.00434468;10 µA;
0.615387;164.834;-3.98193e-05;2;1267;0.00432198;-0.00434468;10 µA;
0.600739;165.566;-4.2041e-05;2;1273;0.00432198;-0.00434468;10 µA;
0.58609;166.299;-4.42505e-05;2;1279;0.00432198;-0.00434468;10 µA;
0.571442;167.031;-4.64447e-05;2;1285;0.00432198;-0.00434468;10 µA;
0.556793;167.764;-4.87e-05;2;1291;0.00432198;-0.00434468;10 µA;
0.542145;168.496;-5.09644e-05;2;1297;0.00432198;-0.00434468;10 µA;
0.527496;169.228;-5.33447e-05;2;1303;0.00432198;-0.00434468;10 µA;
0.512848;169.961;-5.58502e-05;2;1309;0.00432198;-0.00434468;10 µA;
0.498199;170.693;-5.84686e-05;2;1315;0.00432198;-0.00434468;10 µA;
0.483551;171.426;-6.12793e-05;2;1321;0.00432198;-0.00434468;100 µA;
0.468903;172.158;-6.4209e-05;2;1327;0.00432198;-0.00434468;100 µA;
0.454254;172.891;-6.72913e-05;2;1333;0.00432198;-0.00434468;100 µA;
0.439606;173.623;-7.06177e-05;2;1339;0.00432198;-0.00434468;100 µA;
0.424957;174.355;-7.41272e-05;2;1345;0.00432198;-0.00434468;100 µA;
0.410309;175.088;-7.79114e-05;2;1351;0.00432198;-0.00434468;100 µA;
0.39566;175.82;-8.203125E-05;2;1357;0.00432198;-0.00434468;100 µA;
0.381012;176.553;-8.63647e-05;2;1363;0.00432198;-0.00434468;100 µA;
0.366364;177.285;-9.09424e-05;2;1369;0.00432198;-0.00434468;100 µA;
0.351715;178.018;-9.56726e-05;2;1375;0.00432198;-0.00434468;100 µA;
0.337067;178.75;-0.000100525;2;1381;0.00432198;-0.00434468;100 µA;
0.322418;179.482;-0.000105438;2;1387;0.00432198;-0.00434468;100 µA;
0.30777;180.215;-0.000110229;2;1393;0.00432198;-0.00434468;100 µA;
0.293121;180.947;-0.000114868;2;1399;0.00432198;-0.00434468;100 µA;
0.278473;181.68;-0.000119263;2;1405;0.00432198;-0.00434468;100 µA;
0.263824;182.412;-0.000123352;2;1411;0.00432198;-0.00434468;100 µA;
0.249176;183.144;-0.000127045;2;1417;0.00432198;-0.00434468;100 µA;
0.234528;183.877;-0.000130402;2;1423;0.00432198;-0.00434468;100 µA;
0.219879;184.609;-0.000133392;2;1429;0.00432198;-0.00434468;100 µA;
0.205231;185.342;-0.000135956;2;1435;0.00432198;-0.00434468;100 µA;
0.190582;186.074;-0.000138153;2;1441;0.00432198;-0.00434468;100 µA;
0.175934;186.807;-0.000140076;2;1447;0.00432198;-0.00434468;100 µA;
0.161285;187.539;-0.000141663;2;1453;0.00432198;-0.00434468;100 µA;
0.146637;188.271;-0.000142944;2;1459;0.00432198;-0.00434468;100 µA;
0.131989;189.004;-0.000143921;2;1465;0.00432198;-0.00434468;100 µA;
0.11734;189.736;-0.000144562;2;1471;0.00432198;-0.00434468;100 µA;
0.102692;190.469;-0.000144897;2;1477;0.00432198;-0.00434468;100 µA;
0.0880432;191.201;-0.000145081;2;1483;0.00432198;-0.00434468;100 µA;
0.0733948;191.933;-0.000144989;2;1489;0.00432198;-0.00434468;100 µA;
0.0587463;192.666;-0.000144836;2;1495;0.00432198;-0.00434468;100 µA;
0.0440979;193.398;-0.000144592;2;1501;0.00432198;-0.00434468;100 µA;
0.0294495;194.131;-0.000144257;2;1507;0.00432198;-0.00434468;100 µA;
0.014801;194.863;-0.000143921;2;1513;0.00432198;-0.00434468;100 µA;
0.000152588;195.596;-0.000143585;2;1519;0.00432198;-0.00434468;100 µA;
-0.0144958;196.328;-0.00014328;2;1525;0.00432198;-0.00434468;100 µA;
-0.0291443;197.06;-0.000143127;2;1531;0.00432198;-0.00434468;100 µA;
-0.0437927;197.793;-0.000143066;2;1537;0.00432198;-0.00434468;100 µA;
-0.0584412;198.525;-0.000143219;2;1543;0.00432198;-0.00434468;100 µA;
-0.0730896;199.258;-0.000143585;2;1549;0.00432198;-0.00434468;100 µA;
-0.087738;199.99;-0.000144287;2;1555;0.00432198;-0.00434468;100 µA;
-0.0975037;200.723;-0.00013559;2;1561;0.00432198;-0.00434468;100 µA;
-0.0828552;201.455;-9.85718e-05;2;1567;0.00432198;-0.00434468;100 µA;
-0.0682068;202.187;-7.31506e-05;2;1573;0.00432198;-0.00434468;100 µA;
-0.0535583;202.92;-5.2948e-05;2;1579;0.00432198;-0.00434468;100 µA;
-0.0389099;203.652;-3.62122e-05;2;1585;0.00432198;-0.00434468;10 µA;
-0.0242615;204.385;-2.20734e-05;2;1591;0.00432198;-0.00434468;10 µA;
-0.00961304;205.117;-9.99146e-06;2;1597;0.00432198;-0.00434468;10 µA;
0.0050354;205.849;5.88684e-07;2;1603;0.00432198;-0.00434468;10 µA;
0.0196838;206.582;9.8053e-06;2;1609;0.00432198;-0.00434468;10 µA;
0.0343323;207.314;1.79199e-05;2;1615;0.00432198;-0.00434468;10 µA;
0.0489807;208.047;2.51129e-05;2;1621;0.00432198;-0.00434468;10 µA;
0.0636292;208.779;3.15796e-05;2;1627;0.00432198;-0.00434468;10 µA;
0.0782776;209.512;3.74084e-05;2;1633;0.00432198;-0.00434468;10 µA;
0.092926;210.244;4.2804e-05;2;1639;0.00432198;-0.00434468;10 µA;
0.107574;210.976;4.78638e-05;2;1645;0.00432198;-0.00434468;10 µA;
0.122223;211.709;5.2594e-05;2;1651;0.00432198;-0.00434468;10 µA;
0.136871;212.441;5.71167e-05;2;1657;0.00432198;-0.00434468;10 µA;
0.15152;213.174;6.12793e-05;2;1663;0.00432198;-0.00434468;100 µA;
0.166168;213.906;6.54297e-05;2;1669;0.00432198;-0.00434468;100 µA;
0.180817;214.639;6.9458e-05;2;1675;0.00432198;-0.00434468;100 µA;
0.195465;215.371;7.33948e-05;2;1681;0.00432198;-0.00434468;100 µA;
0.210114;216.103;7.72705e-05;2;1687;0.00432198;-0.00434468;100 µA;
0.224762;216.836;8.10852e-05;2;1693;0.00432198;-0.00434468;100 µA;
0.23941;217.568;8.48389e-05;2;1699;0.00432198;-0.00434468;100 µA;
0.254059;218.301;8.84705e-05;2;1705;0.00432198;-0.00434468;100 µA;
0.268707;219.033;9.2041e-05;2;1711;0.00432198;-0.00434468;100 µA;
0.283356;219.765;9.54895e-05;2;1717;0.00432198;-0.00434468;100 µA;
0.298004;220.498;9.8938e-05;2;1723;0.00432198;-0.00434468;100 µA;
0.312653;221.23;0.000102448;3;1729;0.004327;-0.00435544;100 µA;
0.327301;221.963;0.000105957;3;1735;0.004327;-0.00435544;100 µA;
0.341949;222.695;0.000109558;3;1741;0.004327;-0.00435544;100 µA;
0.356598;223.428;0.000113129;3;1747;0.004327;-0.00435544;100 µA;
0.371246;224.16;0.000116791;3;1753;0.004327;-0.00435544;100 µA;
0.385895;224.892;0.0001203;3;1759;0.004327;-0.00435544;100 µA;
0.400543;225.625;0.000123535;3;1765;0.004327;-0.00435544;100 µA;
0.415192;226.357;0.000126495;3;1771;0.004327;-0.00435544;100 µA;
0.42984;227.09;0.000128845;3;1777;0.004327;-0.00435544;100 µA;
0.444489;227.822;0.000130707;3;1783;0.004327;-0.00435544;100 µA;
0.459137;228.554;0.000132019;3;1789;0.004327;-0.00435544;100 µA;
0.473785;229.287;0.000132629;3;1795;0.004327;-0.00435544;100 µA;
0.488434;230.019;0.000132843;3;1801;0.004327;-0.00435544;100 µA;
0.503082;230.752;0.000132538;3;1807;0.004327;-0.00435544;100 µA;
0.517731;231.484;0.000131927;3;1813;0.004327;-0.00435544;100 µA;
0.532379;232.217;0.000131073;3;1819;0.004327;-0.00435544;100 µA;
0.547028;232.949;0.000130005;3;1825;0.004327;-0.00435544;100 µA;
0.561676;233.681;0.000128876;3;1831;0.004327;-0.00435544;100 µA;
0.576324;234.414;0.000127625;3;1837;0.004327;-0.00435544;100 µA;
0.590973;235.146;0.000126251;3;1843;0.004327;-0.00435544;100 µA;
0.605621;235.879;0.000124786;3;1849;0.004327;-0.00435544;100 µA;
0.62027;236.611;0.000123291;3;1855;0.004327;-0.00435544;100 µA;
0.634918;237.344;0.000121765;3;1861;0.004327;-0.00435544;100 µA;
0.649567;238.076;0.000120239;3;1867;0.004327;-0.00435544;100 µA;
0.664215;238.808;0.000118713;3;1873;0.004327;-0.00435544;100 µA;
0.678864;239.541;0.000117157;3;1879;0.004327;-0.00435544;100 µA;
0.693512;240.273;0.000115662;3;1885;0.004327;-0.00435544;100 µA;
0.70816;241.006;0.000114227;3;1891;0.004327;-0.00435544;100 µA;
0.722809;241.738;0.000112823;3;1897;0.004327;-0.00435544;100 µA;
0.737457;242.47;0.000111511;3;1903;0.004327;-0.00435544;100 µA;
0.752106;243.203;0.000110291;3;1909;0.004327;-0.00435544;100 µA;
0.766754;243.935;0.000109161;3;1915;0.004327;-0.00435544;100 µA;
0.781403;244.668;0.000108215;3;1921;0.004327;-0.00435544;100 µA;
0.796051;245.4;0.000107544;3;1927;0.004327;-0.00435544;100 µA;
0.810699;246.133;0.000107147;3;1933;0.004327;-0.00435544;100 µA;
0.825348;246.865;0.000107086;3;1939;0.004327;-0.00435544;100 µA;
0.839996;247.597;0.000107574;3;1945;0.004327;-0.00435544;100 µA;
0.849762;248.33;9.96704e-05;3;1951;0.004327;-0.00435544;100 µA;
0.835114;249.062;6.77795e-05;3;1957;0.004327;-0.00435544;100 µA;
0.820465;249.795;4.66919e-05;3;1963;0.004327;-0.00435544;100 µA;
0.805817;250.527;3.07465e-05;3;1969;0.004327;-0.00435544;10 µA;
0.791168;251.26;1.79718e-05;3;1975;0.004327;-0.00435544;10 µA;
0.77652;251.992;7.61719e-06;3;1981;0.004327;-0.00435544;10 µA;
0.761871;252.724;-9.1217e-07;3;1987;0.004327;-0.00435544;10 µA;
0.747223;253.457;-7.96814e-06;3;1993;0.004327;-0.00435544;10 µA;
0.732574;254.189;-1.38275e-05;3;1999;0.004327;-0.00435544;10 µA;
0.717926;254.922;-1.87866e-05;3;2005;0.004327;-0.00435544;10 µA;
0.703278;255.654;-2.30042e-05;3;2011;0.004327;-0.00435544;10 µA;
0.688629;256.386;-2.66327e-05;3;2017;0.004327;-0.00435544;10 µA;
0.673981;257.119;-2.98218e-05;3;2023;0.004327;-0.00435544;10 µA;
0.659332;257.851;-3.2666e-05;3;2029;0.004327;-0.00435544;10 µA;
0.644684;258.584;-3.52631e-05;3;2035;0.004327;-0.00435544;10 µA;
0.630035;259.316;-3.76831e-05;3;2041;0.004327;-0.00435544;10 µA;
0.615387;260.049;-3.99811e-05;3;2047;0.004327;-0.00435544;10 µA;
0.600739;260.781;-4.22028e-05;3;2053;0.004327;-0.00435544;10 µA;
0.58609;261.513;-4.43939e-05;3;2059;0.004327;-0.00435544;10 µA;
0.571442;262.246;-4.65942e-05;3;2065;0.004327;-0.00435544;10 µA;
0.556793;262.978;-4.88312e-05;3;2071;0.004327;-0.00435544;10 µA;
0.542145;263.711;-5.11108e-05;3;2077;0.004327;-0.00435544;10 µA;
0.527496;264.443;-5.35034e-05;3;2083;0.004327;-0.00435544;10 µA;
0.512848;265.175;-5.60181e-05;3;2089;0.004327;-0.00435544;10 µA;
0.498199;265.908;-5.86487e-05;3;2095;0.004327;-0.00435544;10 µA;
0.483551;266.64;-6.14319e-05;3;2101;0.004327;-0.00435544;100 µA;
0.468903;267.373;-6.43616e-05;3;2107;0.004327;-0.00435544;100 µA;
0.454254;268.105;-6.74744e-05;3;2113;0.004327;-0.00435544;100 µA;
0.439606;268.838;-7.08008e-05;3;2119;0.004327;-0.00435544;100 µA;
0.424957;269.57;-7.43408e-05;3;2125;0.004327;-0.00435544;100 µA;
0.410309;270.302;-7.81555e-05;3;2131;0.004327;-0.00435544;100 µA;
0.39566;271.035;-8.22449e-05;3;2137;0.004327;-0.00435544;100 µA;
0.381012;271.767;-8.66394e-05;3;2143;0.004327;-0.00435544;100 µA;
0.366364;272.5;-9.12781e-05;3;2149;0.004327;-0.00435544;100 µA;
0.351715;273.232;-9.60388e-05;3;2155;0.004327;-0.00435544;100 µA;
0.337067;273.965;-0.000100891;3;2161;0.004327;-0.00435544;100 µA;
0.322418;274.697;-0.000105804;3;2167;0.004327;-0.00435544;100 µA;
0.30777;275.429;-0.000110657;3;2173;0.004327;-0.00435544;100 µA;
0.293121;276.162;-0.000115295;3;2179;0.004327;-0.00435544;100 µA;
0.278473;276.894;-0.00011969;3;2185;0.004327;-0.00435544;100 µA;
0.263824;277.627;-0.000123779;3;2191;0.004327;-0.00435544;100 µA;
0.249176;278.359;-0.000127502;3;2197;0.004327;-0.00435544;100 µA;
0.234528;279.091;-0.000130859;3;2203;0.004327;-0.00435544;100 µA;
0.219879;279.824;-0.000133789;3;2209;0.004327;-0.00435544;100 µA;
0.205231;280.556;-0.000136414;3;2215;0.004327;-0.00435544;100 µA;
0.190582;281.289;-0.000138611;3;2221;0.004327;-0.00435544;100 µA;
0.175934;282.021;-0.000140533;3;2227;0.004327;-0.00435544;100 µA;
0.161285;282.754;-0.00014209;3;2233;0.004327;-0.00435544;100 µA;
0.146637;283.486;-0.000143372;3;2239;0.004327;-0.00435544;100 µA;
0.131989;284.218;-0.000144287;3;2245;0.004327;-0.00435544;100 µA;
0.11734;284.951;-0.000144958;3;2251;0.004327;-0.00435544;100 µA;
0.102692;285.683;-0.000145264;3;2257;0.004327;-0.00435544;100 µA;
0.0880432;286.416;-0.000145447;3;2263;0.004327;-0.00435544;100 µA;
0.0733948;287.148;-0.000145325;3;2269;0.004327;-0.00435544;100 µA;
0.0587463;287.881;-0.000145172;3;2275;0.004327;-0.00435544;100 µA;
0.0440979;288.613;-0.000144897;3;2281;0.004327;-0.00435544;100 µA;
0.0294495;289.345;-0.000144562;3;2287;0.004327;-0.00435544;100 µA;
0.014801;290.078;-0.000144196;3;2293;0.004327;-0.00435544;100 µA;
0.000152588;290.81;-0.00014386;3;2299;0.004327;-0.00435544;100 µA;
-0.0144958;291.543;-0.000143585;3;2305;0.004327;-0.00435544;100 µA;
-0.0291443;292.275;-0.000143372;3;2311;0.004327;-0.00435544;100 µA;
-0.0437927;293.007;-0.000143311;3;2317;0.004327;-0.00435544;100 µA;
-0.0584412;293.74;-0.000143372;3;2323;0.004327;-0.00435544;100 µA;
-0.0730896;294.472;-0.000143738;3;2329;0.004327;-0.00435544;100 µA;
-0.087738;295.205;-0.000144409;3;2335;0.004327;-0.00435544;100 µA;
-0.0975037;295.937;-0.000135498;3;2341;0.004327;-0.00435544;100 µA;
-0.0828552;296.67;-9.82666e-05;3;2347;0.004327;-0.00435544;100 µA;
-0.0682068;297.402;-7.28455e-05;3;2353;0.004327;-0.00435544;100 µA;
-0.0535583;298.134;-5.25818e-05;3;2359;0.004327;-0.00435544;100 µA;
-0.0389099;298.867;-3.5788e-05;3;2365;0.004327;-0.00435544;10 µA;
-0.0242615;299.599;-2.16309e-05;3;2371;0.004327;-0.00435544;10 µA;
-0.00961304;300.332;-9.51233e-06;3;2377;0.004327;-0.00435544;10 µA;
0.0050354;301.064;9.97009e-07;3;2383;0.004327;-0.00435544;10 µA;
0.0196838;301.796;1.01624e-05;3;2389;0.004327;-0.00435544;10 µA;
0.0343323;302.529;1.82312e-05;3;2395;0.004327;-0.00435544;10 µA;
0.0489807;303.261;2.5412e-05;3;2401;0.004327;-0.00435544;10 µA;
0.0636292;303.994;3.18512e-05;3;2407;0.004327;-0.00435544;10 µA;
0.0782776;304.726;3.76495e-05;3;2413;0.004327;-0.00435544;10 µA;
0.092926;305.459;4.30481e-05;3;2419;0.004327;-0.00435544;10 µA;
0.107574;306.191;4.80835e-05;3;2425;0.004327;-0.00435544;10 µA;
0.122223;306.923;5.27924e-05;3;2431;0.004327;-0.00435544;10 µA;
0.136871;307.656;5.73303e-05;3;2437;0.004327;-0.00435544;10 µA;
0.15152;308.388;6.14929e-05;3;2443;0.004327;-0.00435544;100 µA;
0.166168;309.121;6.56433e-05;3;2449;0.004327;-0.00435544;100 µA;
0.180817;309.853;6.97021e-05;3;2455;0.004327;-0.00435544;100 µA;
0.195465;310.586;7.36084e-05;3;2461;0.004327;-0.00435544;100 µA;
0.210114;311.318;7.75146e-05;3;2467;0.004327;-0.00435544;100 µA;
0.224762;312.05;8.13293e-05;3;2473;0.004327;-0.00435544;100 µA;
0.23941;312.783;8.5083e-05;3;2479;0.004327;-0.00435544;100 µA;
0.254059;313.515;8.86841e-05;3;2485;0.004327;-0.00435544;100 µA;
0.268707;314.248;9.22546e-05;3;2491;0.004327;-0.00435544;100 µA;
0.283356;314.98;9.57336e-05;3;2497;0.004327;-0.00435544;100 µA;
0.298004;315.712;9.92126e-05;3;2503;0.004327;-0.00435544;100 µA;
0.312653;316.445;0.000102722;4;2509;0.00433307;-0.004363;100 µA;
0.327301;317.177;0.000106262;4;2515;0.00433307;-0.004363;100 µA;
0.341949;317.91;0.000109833;4;2521;0.00433307;-0.004363;100 µA;
0.356598;318.642;0.000113464;4;2527;0.00433307;-0.004363;100 µA;
0.371246;319.375;0.000117126;4;2533;0.00433307;-0.004363;100 µA;
0.385895;320.107;0.000120636;4;2539;0.00433307;-0.004363;100 µA;
0.400543;320.839;0.000123901;4;2545;0.00433307;-0.004363;100 µA;
0.415192;321.572;0.000126801;4;2551;0.00433307;-0.004363;100 µA;
0.42984;322.304;0.00012915;4;2557;0.00433307;-0.004363;100 µA;
0.444489;323.037;0.000131073;4;2563;0.00433307;-0.004363;100 µA;
0.459137;323.769;0.000132294;4;2569;0.00433307;-0.004363;100 µA;
0.473785;324.502;0.000132904;4;2575;0.00433307;-0.004363;100 µA;
0.488434;325.234;0.000133087;4;2581;0.00433307;-0.004363;100 µA;
0.503082;325.966;0.000132843;4;2587;0.00433307;-0.004363;100 µA;
0.517731;326.699;0.000132172;4;2593;0.00433307;-0.004363;100 µA;
0.532379;327.431;0.000131317;4;2599;0.00433307;-0.004363;100 µA;
0.547028;328.164;0.000130219;4;2605;0.00433307;-0.004363;100 µA;
0.561676;328.896;0.000129059;4;2611;0.00433307;-0.004363;100 µA;
0.576324;329.628;0.000127808;4;2617;0.00433307;-0.004363;100 µA;
0.590973;330.361;0.000126404;4;2623;0.00433307;-0.004363;100 µA;
0.605621;331.093;0.000124908;4;2629;0.00433307;-0.004363;100 µA;
0.62027;331.826;0.000123383;4;2635;0.00433307;-0.004363;100 µA;
0.634918;332.558;0.000121887;4;2641;0.00433307;-0.004363;100 µA;
0.649567;333.291;0.000120331;4;2647;0.00433307;-0.004363;100 µA;
0.664215;334.023;0.000118774;4;2653;0.00433307;-0.004363;100 µA;
0.678864;334.755;0.0001171875;4;2659;0.00433307;-0.004363;100 µA;
0.693512;335.488;0.000115723;4;2665;0.00433307;-0.004363;100 µA;
0.70816;336.22;0.000114197;4;2671;0.00433307;-0.004363;100 µA;
0.722809;336.953;0.000112823;4;2677;0.00433307;-0.004363;100 µA;
0.737457;337.685;0.000111481;4;2683;0.00433307;-0.004363;100 µA;
0.752106;338.417;0.000110199;4;2689;0.00433307;-0.004363;100 µA;
0.766754;339.15;0.0001091;4;2695;0.00433307;-0.004363;100 µA;
0.781403;339.882;0.000108124;4;2701;0.00433307;-0.004363;100 µA;
0.796051;340.615;0.000107391;4;2707;0.00433307;-0.004363;100 µA;
0.810699;341.347;0.000106934;4;2713;0.00433307;-0.004363;100 µA;
0.825348;342.08;0.000106842;4;2719;0.00433307;-0.004363;100 µA;
0.839996;342.812;0.0001073;4;2725;0.00433307;-0.004363;100 µA;
0.849762;343.544;9.93042e-05;4;2731;0.00433307;-0.004363;100 µA;
0.835114;344.277;6.73218e-05;4;2737;0.00433307;-0.004363;100 µA;
0.820465;345.009;4.62372e-05;4;2743;0.00433307;-0.004363;100 µA;
0.805817;345.742;3.0304e-05;4;2749;0.00433307;-0.004363;10 µA;
0.791168;346.474;1.75537e-05;4;2755;0.00433307;-0.004363;10 µA;
0.77652;347.207;7.24487e-06;4;2761;0.00433307;-0.004363;10 µA;
0.761871;347.939;-1.24878e-06;4;2767;0.00433307;-0.004363;10 µA;
0.747223;348.671;-8.26416e-06;4;2773;0.00433307;-0.004363;10 µA;
0.732574;349.404;-1.4093e-05;4;2779;0.00433307;-0.004363;10 µA;
0.717926;350.136;-1.90216e-05;4;2785;0.00433307;-0.004363;10 µA;
0.703278;350.869;-2.32025e-05;4;2791;0.00433307;-0.004363;10 µA;
0.688629;351.601;-2.68066e-05;4;2797;0.00433307;-0.004363;10 µA;
0.673981;352.333;-2.99591e-05;4;2803;0.00433307;-0.004363;10 µA;
0.659332;353.066;-3.27881e-05;4;2809;0.00433307;-0.004363;10 µA;
0.644684;353.798;-3.53699e-05;4;2815;0.00433307;-0.004363;10 µA;
0.630035;354.531;-3.77716e-05;4;2821;0.00433307;-0.004363;10 µA;
0.615387;355.263;-4.00787e-05;4;2827;0.00433307;-0.004363;10 µA;
0.600739;355.996;-4.22852e-05;4;2833;0.00433307;-0.004363;10 µA;
0.58609;356.728;-4.44702e-05;4;2839;0.00433307;-0.004363;10 µA;
0.571442;357.46;-4.66736e-05;4;2845;0.00433307;-0.004363;10 µA;
0.556793;358.193;-4.89227e-05;4;2851;0.00433307;-0.004363;10 µA;
0.542145;358.925;-5.11749e-05;4;2857;0.00433307;-0.004363;10 µA;
0.527496;359.658;-5.35858e-05;4;2863;0.00433307;-0.004363;10 µA;
0.512848;360.39;-5.60974e-05;4;2869;0.00433307;-0.004363;10 µA;
0.498199;361.123;-5.87067e-05;4;2875;0.00433307;-0.004363;10 µA;
0.483551;361.855;-6.1554e-05;4;2881;0.00433307;-0.004363;100 µA;
0.468903;362.587;-6.44836e-05;4;2887;0.00433307;-0.004363;100 µA;
0.454254;363.32;-6.75964e-05;4;2893;0.00433307;-0.004363;100 µA;
0.439606;364.052;-7.09839e-05;4;2899;0.00433307;-0.004363;100 µA;
0.424957;364.785;-7.44934e-05;4;2905;0.00433307;-0.004363;100 µA;
0.410309;365.517;-7.83386e-05;4;2911;0.00433307;-0.004363;100 µA;
0.39566;366.249;-8.24585e-05;4;2917;0.00433307;-0.004363;100 µA;
0.381012;366.982;-8.6853e-05;4;2923;0.00433307;-0.004363;100 µA;
0.366364;367.714;-9.14917e-05;4;2929;0.00433307;-0.004363;100 µA;
0.351715;368.447;-9.6283e-05;4;2935;0.00433307;-0.004363;100 µA;
0.337067;369.179;-0.000101166;4;2941;0.00433307;-0.004363;100 µA;
0.322418;369.912;-0.000106079;4;2947;0.00433307;-0.004363;100 µA;
0.30777;370.644;-0.000110962;4;2953;0.00433307;-0.004363;100 µA;
0.293121;371.376;-0.000115601;4;2959;0.00433307;-0.004363;100 µA;
0.278473;372.109;-0.000120026;4;2965;0.00433307;-0.004363;100 µA;
0.263824;372.841;-0.000124115;4;2971;0.00433307;-0.004363;100 µA;
0.249176;373.574;-0.000127869;4;2977;0.00433307;-0.004363;100 µA;
0.234528;374.306;-0.000131256;4;2983;0.00433307;-0.004363;100 µA;
0.219879;375.038;-0.000134186;4;2989;0.00433307;-0.004363;100 µA;
0.205231;375.771;-0.000136749;4;2995;0.00433307;-0.004363;100 µA;
0.190582;376.503;-0.000138947;4;3001;0.00433307;-0.004363;100 µA;
0.175934;377.236;-0.000140869;4;3007;0.00433307;-0.004363;100 µA;
0.161285;377.968;-0.000142456;4;3013;0.00433307;-0.004363;100 µA;
0.146637;378.701;-0.000143738;4;3019;0.00433307;-0.004363;100 µA;
0.131989;379.433;-0.000144623;4;3025;0.00433307;-0.004363;100 µA;
0.11734;380.165;-0.000145264;4;3031;0.00433307;-0.004363;100 µA;
0.102692;380.898;-0.000145599;4;3037;0.00433307;-0.004363;100 µA;
0.0880432;381.63;-0.000145752;4;3043;0.00433307;-0.004363;100 µA;
0.0733948;382.363;-0.00014563;4;3049;0.00433307;-0.004363;100 µA;
0.0587463;383.095;-0.000145447;4;3055;0.00433307;-0.004363;100 µA;
0.0440979;383.828;-0.000145172;4;3061;0.00433307;-0.004363;100 µA;
0.0294495;384.56;-0.000144806;4;3067;0.00433307;-0.004363;100 µA;
0.014801;385.292;-0.00014444;4;3073;0.00433307;-0.004363;100 µA;
0.000152588;386.025;-0.000144073;4;3079;0.00433307;-0.004363;100 µA;
-0.0144958;386.757;-0.000143768;4;3085;0.00433307;-0.004363;100 µA;
-0.0291443;387.49;-0.000143524;4;3091;0.00433307;-0.004363;100 µA;
-0.0437927;388.222;-0.000143402;4;3097;0.00433307;-0.004363;100 µA;
-0.0584412;388.954;-0.000143463;4;3103;0.00433307;-0.004363;100 µA;
-0.0730896;389.687;-0.000143738;4;3109;0.00433307;-0.004363;100 µA;
-0.087738;390.419;-0.00014444;4;3115;0.00433307;-0.004363;100 µA;
-0.0975037;391.152;-0.000135437;4;3121;0.00433307;-0.004363;100 µA;
-0.0828552;391.884;-9.80225e-05;4;3127;0.00433307;-0.004363;100 µA;
-0.0682068;392.617;-7.27234e-05;4;3133;0.00433307;-0.004363;100 µA;
-0.0535583;393.349;-5.22766e-05;4;3139;0.00433307;-0.004363;100 µA;
-0.0389099;394.081;-3.54279e-05;4;3145;0.00433307;-0.004363;10 µA;
-0.0242615;394.814;-2.12585e-05;4;3151;0.00433307;-0.004363;10 µA;
-0.00961304;395.546;-9.12476e-06;4;3157;0.00433307;-0.004363;10 µA;
0.0050354;396.279;1.38123e-06;4;3163;0.00433307;-0.004363;10 µA;
0.0196838;397.011;1.05408e-05;4;3169;0.00433307;-0.004363;10 µA;
0.0343323;397.744;1.86005e-05;4;3175;0.00433307;-0.004363;10 µA;
0.0489807;398.476;2.57507e-05;4;3181;0.00433307;-0.004363;10 µA;
0.0636292;399.208;3.21625e-05;4;3187;0.00433307;-0.004363;10 µA;
0.0782776;399.941;3.79547e-05;4;3193;0.00433307;-0.004363;10 µA;
0.092926;400.673;4.33289e-05;4;3199;0.00433307;-0.004363;10 µA;
0.107574;401.406;4.83459e-05;4;3205;0.00433307;-0.004363;10 µA;
0.122223;402.138;5.30548e-05;4;3211;0.00433307;-0.004363;10 µA;
0.136871;402.87;5.75745e-05;4;3217;0.00433307;-0.004363;10 µA;
0.15152;403.603;6.17676e-05;4;3223;0.00433307;-0.004363;100 µA;
0.166168;404.335;6.58875e-05;4;3229;0.00433307;-0.004363;100 µA;
0.180817;405.068;6.99158e-05;4;3235;0.00433307;-0.004363;100 µA;
0.195465;405.8;7.38525e-05;4;3241;0.00433307;-0.004363;100 µA;
0.210114;406.533;7.77893e-05;4;3247;0.00433307;-0.004363;100 µA;
0.224762;407.265;8.1604e-05;4;3253;0.00433307;-0.004363;100 µA;
0.23941;407.997;8.53271e-05;4;3259;0.00433307;-0.004363;100 µA;
0.254059;408.73;8.90198e-05;4;3265;0.00433307;-0.004363;100 µA;
0.268707;409.462;9.25598e-05;4;3271;0.00433307;-0.004363;100 µA;
0.283356;410.195;9.60693e-05;4;3277;0.00433307;-0.004363;100 µA;
0.298004;410.927;9.95483e-05;4;3283;0.00433307;-0.004363;100 µA;
0.312653;411.659;0.000103058;5;3289;0.00433998;-0.00437226;100 µA;
0.327301;412.392;0.000106567;5;3295;0.00433998;-0.00437226;100 µA;
0.341949;413.124;0.000110199;5;3301;0.00433998;-0.00437226;100 µA;
0.356598;413.857;0.000113831;5;3307;0.00433998;-0.00437226;100 µA;
0.371246;414.589;0.000117462;5;3313;0.00433998;-0.00437226;100 µA;
0.385895;415.322;0.000121002;5;3319;0.00433998;-0.00437226;100 µA;
0.400543;416.054;0.000124329;5;3325;0.00433998;-0.00437226;100 µA;
0.415192;416.786;0.000127228;5;3331;0.00433998;-0.00437226;100 µA;
0.42984;417.519;0.000129547;5;3337;0.00433998;-0.00437226;100 µA;
0.444489;418.251;0.000131439;5;3343;0.00433998;-0.00437226;100 µA;
0.459137;418.984;0.000132629;5;3349;0.00433998;-0.00437226;100 µA;
0.473785;419.716;0.000133209;5;3355;0.00433998;-0.00437226;100 µA;
0.488434;420.449;0.000133392;5;3361;0.00433998;-0.00437226;100 µA;
0.503082;421.181;0.000133057;5;3367;0.00433998;-0.00437226;100 µA;
0.517731;421.913;0.000132416;5;3373;0.00433998;-0.00437226;100 µA;
0.532379;422.646;0.000131531;5;3379;0.00433998;-0.00437226;100 µA;
0.547028;423.378;0.000130432;5;3385;0.00433998;-0.00437226;100 µA;
0.561676;424.111;0.000129242;5;3391;0.00433998;-0.00437226;100 µA;
0.576324;424.843;0.000127899;5;3397;0.00433998;-0.00437226;100 µA;
0.590973;425.575;0.000126526;5;3403;0.00433998;-0.00437226;100 µA;
0.605621;426.308;0.000125031;5;3409;0.00433998;-0.00437226;100 µA;
0.62027;427.04;0.000123505;5;3415;0.00433998;-0.00437226;100 µA;
0.634918;427.773;0.000121918;5;3421;0.00433998;-0.00437226;100 µA;
0.649567;428.505;0.000120361;5;3427;0.00433998;-0.00437226;100 µA;
0.664215;429.238;0.000118774;5;3433;0.00433998;-0.00437226;100 µA;
0.678864;429.97;0.000117218;5;3439;0.00433998;-0.00437226;100 µA;
0.693512;430.702;0.000115662;5;3445;0.00433998;-0.00437226;100 µA;
0.70816;431.435;0.000114166;5;3451;0.00433998;-0.00437226;100 µA;
0.722809;432.167;0.000112732;5;3457;0.00433998;-0.00437226;100 µA;
0.737457;432.9;0.000111389;5;3463;0.00433998;-0.00437226;100 µA;
0.752106;433.632;0.000110107;5;3469;0.00433998;-0.00437226;100 µA;
0.766754;434.365;0.000108978;5;3475;0.00433998;-0.00437226;100 µA;
0.781403;435.097;0.000108002;5;3481;0.00433998;-0.00437226;100 µA;
0.796051;435.829;0.000107239;5;3487;0.00433998;-0.00437226;100 µA;
0.810699;436.562;0.00010675;5;3493;0.00433998;-0.00437226;100 µA;
0.825348;437.294;0.000106659;5;3499;0.00433998;-0.00437226;100 µA;
0.839996;438.027;0.000107056;5;3505;0.00433998;-0.00437226;100 µA;
0.849762;438.759;9.8999e-05;5;3511;0.00433998;-0.00437226;100 µA;
0.835114;439.491;6.6925e-05;5;3517;0.00433998;-0.00437226;100 µA;
0.820465;440.224;4.57825e-05;5;3523;0.00433998;-0.00437226;100 µA;
0.805817;440.956;2.98553e-05;5;3529;0.00433998;-0.00437226;10 µA;
0.791168;441.689;1.71173e-05;5;3535;0.00433998;-0.00437226;10 µA;
0.77652;442.421;6.8512e-06;5;3541;0.00433998;-0.00437226;10 µA;
0.761871;443.154;-1.59424e-06;5;3547;0.00433998;-0.00437226;10 µA;
0.747223;443.886;-8.56628e-06;5;3553;0.00433998;-0.00437226;10 µA;
0.732574;444.618;-1.43555e-05;5;3559;0.00433998;-0.00437226;10 µA;
0.717926;445.351;-1.9223e-05;5;3565;0.00433998;-0.00437226;10 µA;
0.703278;446.083;-2.33826e-05;5;3571;0.00433998;-0.00437226;10 µA;
0.688629;446.816;-2.69562e-05;5;3577;0.00433998;-0.00437226;10 µA;
0.673981;447.548;-3.00873e-05;5;3583;0.00433998;-0.00437226;10 µA;
0.659332;448.28;-3.28766e-05;5;3589;0.00433998;-0.00437226;10 µA;
0.644684;449.013;-3.54523e-05;5;3595;0.00433998;-0.00437226;10 µA;
0.630035;449.745;-3.78326e-05;5;3601;0.00433998;-0.00437226;10 µA;
0.615387;450.478;-4.01245e-05;5;3607;0.00433998;-0.00437226;10 µA;
0.600739;451.21;-4.23309e-05;5;3613;0.00433998;-0.00437226;10 µA;
0.58609;451.943;-4.453125E-05;5;3619;0.00433998;-0.00437226;10 µA;
0.571442;452.675;-4.67377e-05;5;3625;0.00433998;-0.00437226;10 µA;
0.556793;453.407;-4.89502e-05;5;3631;0.00433998;-0.00437226;10 µA;
0.542145;454.14;-5.12451e-05;5;3637;0.00433998;-0.00437226;10 µA;
0.527496;454.872;-5.36682e-05;5;3643;0.00433998;-0.00437226;10 µA;
0.512848;455.605;-5.61646e-05;5;3649;0.00433998;-0.00437226;10 µA;
0.498199;456.337;-5.87952e-05;5;3655;0.00433998;-0.00437226;10 µA;
0.483551;457.07;-6.16455e-05;5;3661;0.00433998;-0.00437226;100 µA;
0.468903;457.802;-6.46057e-05;5;3667;0.00433998;-0.00437226;100 µA;
0.454254;458.534;-6.7749e-05;5;3673;0.00433998;-0.00437226;100 µA;
0.439606;459.267;-7.1106e-05;5;3679;0.00433998;-0.00437226;100 µA;
0.424957;459.999;-7.4646e-05;5;3685;0.00433998;-0.00437226;100 µA;
0.410309;460.732;-7.85217e-05;5;3691;0.00433998;-0.00437226;100 µA;
0.39566;461.464;-8.26721e-05;5;3697;0.00433998;-0.00437226;100 µA;
0.381012;462.196;-8.70972e-05;5;3703;0.00433998;-0.00437226;100 µA;
0.366364;462.929;-9.17664e-05;5;3709;0.00433998;-0.00437226;100 µA;
0.351715;463.661;-9.65881e-05;5;3715;0.00433998;-0.00437226;100 µA;
0.337067;464.394;-0.000101471;5;3721;0.00433998;-0.00437226;100 µA;
0.322418;465.126;-0.000106476;5;3727;0.00433998;-0.00437226;100 µA;
0.30777;465.859;-0.000111359;5;3733;0.00433998;-0.00437226;100 µA;
0.293121;466.591;-0.000116028;5;3739;0.00433998;-0.00437226;100 µA;
0.278473;467.323;-0.000120453;5;3745;0.00433998;-0.00437226;100 µA;
0.263824;468.056;-0.000124573;5;3751;0.00433998;-0.00437226;100 µA;
0.249176;468.788;-0.000128296;5;3757;0.00433998;-0.00437226;100 µA;
0.234528;469.521;-0.000131653;5;3763;0.00433998;-0.00437226;100 µA;
0.219879;470.253;-0.000134613;5;3769;0.00433998;-0.00437226;100 µA;
0.205231;470.986;-0.000137207;5;3775;0.00433998;-0.00437226;100 µA;
0.190582;471.718;-0.000139404;5;3781;0.00433998;-0.00437226;100 µA;
0.175934;472.45;-0.000141296;5;3787;0.00433998;-0.00437226;100 µA;
0.161285;473.183;-0.000142853;5;3793;0.00433998;-0.00437226;100 µA;
0.146637;473.915;-0.000144135;5;3799;0.00433998;-0.00437226;100 µA;
0.131989;474.648;-0.00014502;5;3805;0.00433998;-0.00437226;100 µA;
0.11734;475.38;-0.00014566;5;3811;0.00433998;-0.00437226;100 µA;
0.102692;476.112;-0.000145966;5;3817;0.00433998;-0.00437226;100 µA;
0.0880432;476.845;-0.000146088;5;3823;0.00433998;-0.00437226;100 µA;
0.0733948;477.577;-0.000145935;5;3829;0.00433998;-0.00437226;100 µA;
0.0587463;478.31;-0.000145752;5;3835;0.00433998;-0.00437226;100 µA;
0.0440979;479.042;-0.000145935;5;3841;0.00433998;-0.00437226;100 µA;
0.0294495;479.775;-0.000145416;5;3847;0.00433998;-0.00437226;100 µA;
0.014801;480.507;-0.000144958;5;3853;0.00433998;-0.00437226;100 µA;
0.000152588;481.239;-0.000144531;5;3859;0.00433998;-0.00437226;100 µA;
-0.0144958;481.972;-0.000144135;5;3865;0.00433998;-0.00437226;100 µA;
-0.0291443;482.704;-0.00014386;5;3871;0.00433998;-0.00437226;100 µA;
-0.0437927;483.437;-0.000143738;5;3877;0.00433998;-0.00437226;100 µA;
-0.0584412;484.169;-0.000143799;5;3883;0.00433998;-0.00437226;100 µA;
-0.0730896;484.901;-0.000144043;5;3889;0.00433998;-0.00437226;100 µA;
-0.087738;485.634;-0.000144653;5;3895;0.00433998;-0.00437226;100 µA;
-0.0975037;486.366;-0.000135498;5;3901;0.00433998;-0.00437226;100 µA;
-0.0828552;487.099;-9.77173e-05;5;3907;0.00433998;-0.00437226;100 µA;
-0.0682068;487.831;-7.19604e-05;5;3913;0.00433998;-0.00437226;100 µA;
-0.0535583;488.564;-5.15747e-05;5;3919;0.00433998;-0.00437226;100 µA;
-0.0389099;489.296;-3.47595e-05;5;3925;0.00433998;-0.00437226;10 µA;
-0.0242615;490.028;-2.06055e-05;5;3931;0.00433998;-0.00437226;10 µA;
-0.00961304;490.761;-8.54492e-06;5;3937;0.00433998;-0.00437226;10 µA;
0.0050354;491.493;1.94305e-06;5;3943;0.00433998;-0.00437226;10 µA;
0.0196838;492.226;1.10596e-05;5;3949;0.00433998;-0.00437226;10 µA;
0.0343323;492.958;1.90491e-05;5;3955;0.00433998;-0.00437226;10 µA;
0.0489807;493.691;2.61658e-05;5;3961;0.00433998;-0.00437226;10 µA;
0.0636292;494.423;3.25562e-05;5;3967;0.00433998;-0.00437226;10 µA;
0.0782776;495.155;3.83026e-05;5;3973;0.00433998;-0.00437226;10 µA;
0.092926;495.888;4.3689e-05;5;3979;0.00433998;-0.00437226;10 µA;
0.107574;496.62;4.86664e-05;5;3985;0.00433998;-0.00437226;10 µA;
0.122223;497.353;5.336e-05;5;3991;0.00433998;-0.00437226;10 µA;
0.136871;498.085;5.78796e-05;5;3997;0.00433998;-0.00437226;10 µA;
0.15152;498.817;6.20728e-05;5;4003;0.00433998;-0.00437226;100 µA;
0.166168;499.55;6.61621e-05;5;4009;0.00433998;-0.00437226;100 µA;
0.180817;500.282;7.02209e-05;5;4015;0.00433998;-0.00437226;100 µA;
0.195465;501.015;7.41272e-05;5;4021;0.00433998;-0.00437226;100 µA;
0.210114;501.747;7.8064e-05;5;4027;0.00433998;-0.00437226;100 µA;
0.224762;502.48;8.18787e-05;5;4033;0.00433998;-0.00437226;100 µA;
0.23941;503.212;8.56323e-05;5;4039;0.00433998;-0.00437226;100 µA;
0.254059;503.944;8.92944e-05;5;4045;0.00433998;-0.00437226;100 µA;
0.268707;504.677;9.28955e-05;5;4051;0.00433998;-0.00437226;100 µA;
0.283356;505.409;9.63745e-05;5;4057;0.00433998;-0.00437226;100 µA;
0.298004;506.142;9.9884e-05;5;4063;0.00433998;-0.00437226;100 µA;
0.300446;506.264;0.000100464;5;4064;0.00433998;-0.00437226;100 µA;