File: 30mV-Mxene3_2.txt
Potential applied (V);Time (s);WE(1).Current (A);Scan;Index;Q+;Q-;Current range;Overload
-0.0975037;9.48794;-0.000233307;1;1;0.00465329;-0.00405569;10 mA;
-0.0828552;9.97622;-0.000149109;1;7;0.00465329;-0.00405569;1 mA;
-0.0682068;10.4645;-0.000108704;1;13;0.00465329;-0.00405569;100 µA;
-0.0535583;10.9528;-8.03833e-05;1;19;0.00465329;-0.00405569;100 µA;
-0.0389099;11.4411;-5.8075e-05;1;25;0.00465329;-0.00405569;100 µA;
-0.0242615;11.9293;-3.9444e-05;1;31;0.00465329;-0.00405569;100 µA;
-0.00961304;12.4176;-2.32697e-05;1;37;0.00465329;-0.00405569;10 µA;
0.0050354;12.9059;-9.15527e-06;1;43;0.00465329;-0.00405569;10 µA;
0.0196838;13.3942;3.30353e-06;1;49;0.00465329;-0.00405569;10 µA;
0.0343323;13.8825;1.44714e-05;1;55;0.00465329;-0.00405569;10 µA;
0.0489807;14.3707;2.44965e-05;1;61;0.00465329;-0.00405569;10 µA;
0.0636292;14.859;3.36426e-05;1;67;0.00465329;-0.00405569;10 µA;
0.0782776;15.3473;4.19617e-05;1;73;0.00465329;-0.00405569;10 µA;
0.092926;15.8356;4.97101e-05;1;79;0.00465329;-0.00405569;10 µA;
0.107574;16.3239;5.68878e-05;1;85;0.00465329;-0.00405569;10 µA;
0.122223;16.8121;6.35681e-05;1;91;0.00465329;-0.00405569;100 µA;
0.136871;17.3004;6.99768e-05;1;97;0.00465329;-0.00405569;100 µA;
0.15152;17.7887;7.60498e-05;1;103;0.00465329;-0.00405569;100 µA;
0.166168;18.277;8.18176e-05;1;109;0.00465329;-0.00405569;100 µA;
0.180817;18.7653;8.73718e-05;1;115;0.00465329;-0.00405569;100 µA;
0.195465;19.2535;9.27124e-05;1;121;0.00465329;-0.00405569;100 µA;
0.210114;19.7418;9.79309e-05;1;127;0.00465329;-0.00405569;100 µA;
0.224762;20.2301;0.000102966;1;133;0.00465329;-0.00405569;100 µA;
0.23941;20.7184;0.00010788;1;139;0.00465329;-0.00405569;100 µA;
0.254059;21.2067;0.00011264;1;145;0.00465329;-0.00405569;100 µA;
0.268707;21.6949;0.00011731;1;151;0.00465329;-0.00405569;100 µA;
0.283356;22.1832;0.000121857;1;157;0.00465329;-0.00405569;100 µA;
0.298004;22.6715;0.000126434;1;163;0.00465329;-0.00405569;100 µA;
0.312653;23.1598;0.000131012;1;169;0.00465329;-0.00405569;100 µA;
0.327301;23.6481;0.000135651;1;175;0.00465329;-0.00405569;100 µA;
0.341949;24.1363;0.00014032;1;181;0.00465329;-0.00405569;100 µA;
0.356598;24.6246;0.00014505;1;187;0.00465329;-0.00405569;100 µA;
0.371246;25.1129;0.00014978;1;193;0.00465329;-0.00405569;100 µA;
0.385895;25.6012;0.000154541;1;199;0.00465329;-0.00405569;100 µA;
0.400543;26.0895;0.000159149;1;205;0.00465329;-0.00405569;100 µA;
0.415192;26.5777;0.000163483;1;211;0.00465329;-0.00405569;100 µA;
0.42984;27.066;0.000167511;1;217;0.00465329;-0.00405569;100 µA;
0.444489;27.5543;0.000171112;1;223;0.00465329;-0.00405569;100 µA;
0.459137;28.0426;0.000174164;1;229;0.00465329;-0.00405569;100 µA;
0.473785;28.5309;0.000176636;1;235;0.00465329;-0.00405569;100 µA;
0.488434;29.0191;0.000178558;1;241;0.00465329;-0.00405569;100 µA;
0.503082;29.5074;0.000179932;1;247;0.00465329;-0.00405569;100 µA;
0.517731;29.9957;0.000180817;1;253;0.00465329;-0.00405569;100 µA;
0.532379;30.484;0.000181396;1;259;0.00465329;-0.00405569;100 µA;
0.547028;30.9723;0.00018158;1;265;0.00465329;-0.00405569;100 µA;
0.561676;31.4605;0.000181519;1;271;0.00465329;-0.00405569;100 µA;
0.576324;31.9488;0.000181305;1;277;0.00465329;-0.00405569;100 µA;
0.590973;32.4371;0.000180847;1;283;0.00465329;-0.00405569;100 µA;
0.605621;32.9254;0.000180237;1;289;0.00465329;-0.00405569;100 µA;
0.62027;33.4137;0.000179443;1;295;0.00465329;-0.00405569;100 µA;
0.634918;33.9019;0.000178558;1;301;0.00465329;-0.00405569;100 µA;
0.649567;34.3902;0.000177551;1;307;0.00465329;-0.00405569;100 µA;
0.664215;34.8785;0.000176422;1;313;0.00465329;-0.00405569;100 µA;
0.678864;35.3668;0.000175201;1;319;0.00465329;-0.00405569;100 µA;
0.693512;35.8551;0.00017395;1;325;0.00465329;-0.00405569;100 µA;
0.70816;36.3433;0.000172668;1;331;0.00465329;-0.00405569;100 µA;
0.722809;36.8316;0.000171417;1;337;0.00465329;-0.00405569;100 µA;
0.737457;37.3199;0.000170105;1;343;0.00465329;-0.00405569;100 µA;
0.752106;37.8082;0.000168762;1;349;0.00465329;-0.00405569;100 µA;
0.766754;38.2965;0.00016748;1;355;0.00465329;-0.00405569;100 µA;
0.781403;38.7847;0.00016629;1;361;0.00465329;-0.00405569;100 µA;
0.796051;39.273;0.000165161;1;367;0.00465329;-0.00405569;100 µA;
0.810699;39.7613;0.000164246;1;373;0.00465329;-0.00405569;100 µA;
0.825348;40.2496;0.000163544;1;379;0.00465329;-0.00405569;100 µA;
0.839996;40.7379;0.000163361;1;385;0.00465329;-0.00405569;100 µA;
0.849762;41.2261;0.000153687;1;391;0.00465329;-0.00405569;100 µA;
0.835114;41.7144;0.000116425;1;397;0.00465329;-0.00405569;100 µA;
0.820465;42.2027;9.04846e-05;1;403;0.00465329;-0.00405569;100 µA;
0.805817;42.691;6.97327e-05;1;409;0.00465329;-0.00405569;100 µA;
0.791168;43.1793;5.23682e-05;1;415;0.00465329;-0.00405569;100 µA;
0.77652;43.6675;3.77411e-05;1;421;0.00465329;-0.00405569;10 µA;
0.761871;44.1558;2.49603e-05;1;427;0.00465329;-0.00405569;10 µA;
0.747223;44.6441;1.38458e-05;1;433;0.00465329;-0.00405569;10 µA;
0.732574;45.1324;4.11224e-06;1;439;0.00465329;-0.00405569;10 µA;
0.717926;45.6207;-4.51874e-06;1;445;0.00465329;-0.00405569;1 µA;
0.703278;46.1089;-1.21826e-05;1;451;0.00465329;-0.00405569;10 µA;
0.688629;46.5972;-1.90063e-05;1;457;0.00465329;-0.00405569;10 µA;
0.673981;47.0855;-2.51526e-05;1;463;0.00465329;-0.00405569;10 µA;
0.659332;47.5738;-3.07312e-05;1;469;0.00465329;-0.00405569;10 µA;
0.644684;48.0621;-3.58032e-05;1;475;0.00465329;-0.00405569;10 µA;
0.630035;48.5503;-4.04633e-05;1;481;0.00465329;-0.00405569;10 µA;
0.615387;49.0386;-4.48151e-05;1;487;0.00465329;-0.00405569;10 µA;
0.600739;49.5269;-4.88953e-05;1;493;0.00465329;-0.00405569;10 µA;
0.58609;50.0152;-5.27802e-05;1;499;0.00465329;-0.00405569;10 µA;
0.571442;50.5035;-5.64972e-05;1;505;0.00465329;-0.00405569;10 µA;
0.556793;50.9917;-6.01379e-05;1;511;0.00465329;-0.00405569;10 µA;
0.542145;51.48;-6.36902e-05;1;517;0.00465329;-0.00405569;100 µA;
0.527496;51.9683;-6.72607e-05;1;523;0.00465329;-0.00405569;100 µA;
0.512848;52.4566;-7.08313e-05;1;529;0.00465329;-0.00405569;100 µA;
0.498199;52.9449;-7.44019e-05;1;535;0.00465329;-0.00405569;100 µA;
0.483551;53.4331;-7.8064e-05;1;541;0.00465329;-0.00405569;100 µA;
0.468903;53.9214;-8.18481e-05;1;547;0.00465329;-0.00405569;100 µA;
0.454254;54.4097;-8.57849e-05;1;553;0.00465329;-0.00405569;100 µA;
0.439606;54.898;-8.99048e-05;1;559;0.00465329;-0.00405569;100 µA;
0.424957;55.3863;-9.41162e-05;1;565;0.00465329;-0.00405569;100 µA;
0.410309;55.8745;-9.86633e-05;1;571;0.00465329;-0.00405569;100 µA;
0.39566;56.3628;-0.000103333;1;577;0.00465329;-0.00405569;100 µA;
0.381012;56.8511;-0.000108368;1;583;0.00465329;-0.00405569;100 µA;
0.366364;57.3394;-0.000113586;1;589;0.00465329;-0.00405569;100 µA;
0.351715;57.8277;-0.000118958;1;595;0.00465329;-0.00405569;100 µA;
0.337067;58.3159;-0.000124542;1;601;0.00465329;-0.00405569;100 µA;
0.322418;58.8042;-0.000130157;1;607;0.00465329;-0.00405569;100 µA;
0.30777;59.2925;-0.000135773;1;613;0.00465329;-0.00405569;100 µA;
0.293121;59.7808;-0.000141296;1;619;0.00465329;-0.00405569;100 µA;
0.278473;60.2691;-0.000146637;1;625;0.00465329;-0.00405569;100 µA;
0.263824;60.7573;-0.000151794;1;631;0.00465329;-0.00405569;100 µA;
0.249176;61.2456;-0.000156738;1;637;0.00465329;-0.00405569;100 µA;
0.234528;61.7339;-0.000161285;1;643;0.00465329;-0.00405569;100 µA;
0.219879;62.2222;-0.000165497;1;649;0.00465329;-0.00405569;100 µA;
0.205231;62.7105;-0.000169464;1;655;0.00465329;-0.00405569;100 µA;
0.190582;63.1987;-0.000173035;1;661;0.00465329;-0.00405569;100 µA;
0.175934;63.687;-0.000176331;1;667;0.00465329;-0.00405569;100 µA;
0.161285;64.1753;-0.000179321;1;673;0.00465329;-0.00405569;100 µA;
0.146637;64.6636;-0.000181946;1;679;0.00465329;-0.00405569;100 µA;
0.131989;65.1519;-0.000184296;1;685;0.00465329;-0.00405569;100 µA;
0.11734;65.6401;-0.00018634;1;691;0.00465329;-0.00405569;100 µA;
0.102692;66.1284;-0.000188019;1;697;0.00465329;-0.00405569;100 µA;
0.0880432;66.6167;-0.000189484;1;703;0.00465329;-0.00405569;100 µA;
0.0733948;67.105;-0.000190674;1;709;0.00465329;-0.00405569;100 µA;
0.0587463;67.5933;-0.000191681;1;715;0.00465329;-0.00405569;100 µA;
0.0440979;68.0815;-0.000192535;1;721;0.00465329;-0.00405569;100 µA;
0.0294495;68.5698;-0.000193176;1;727;0.00465329;-0.00405569;100 µA;
0.014801;69.0581;-0.000193726;1;733;0.00465329;-0.00405569;100 µA;
0.000152588;69.5464;-0.000194183;1;739;0.00465329;-0.00405569;100 µA;
-0.0144958;70.0347;-0.000194641;1;745;0.00465329;-0.00405569;100 µA;
-0.0291443;70.5229;-0.000194977;1;751;0.00465329;-0.00405569;100 µA;
-0.0437927;71.0112;-0.000195435;1;757;0.00465329;-0.00405569;100 µA;
-0.0584412;71.4995;-0.000195862;1;763;0.00465329;-0.00405569;100 µA;
-0.0730896;71.9878;-0.000196411;1;769;0.00465329;-0.00405569;100 µA;
-0.087738;72.4761;-0.000197205;1;775;0.00465329;-0.00405569;100 µA;
-0.0975037;72.9643;-0.000187836;1;781;0.00465329;-0.00405569;100 µA;
-0.0828552;73.4526;-0.000147644;1;787;0.00465329;-0.00405569;100 µA;
-0.0682068;73.9409;-0.000118652;1;793;0.00465329;-0.00405569;100 µA;
-0.0535583;74.4292;-9.49097e-05;1;799;0.00465329;-0.00405569;100 µA;
-0.0389099;74.9175;-7.46765e-05;1;805;0.00465329;-0.00405569;100 µA;
-0.0242615;75.4057;-5.67017e-05;1;811;0.00465329;-0.00405569;100 µA;
-0.00961304;75.894;-4.08112e-05;1;817;0.00465329;-0.00405569;100 µA;
0.0050354;76.3823;-2.64252e-05;1;823;0.00465329;-0.00405569;10 µA;
0.0196838;76.8706;-1.35254e-05;1;829;0.00465329;-0.00405569;10 µA;
0.0343323;77.3589;-1.82037e-06;1;835;0.00465329;-0.00405569;10 µA;
0.0489807;77.8471;8.88672e-06;1;841;0.00465329;-0.00405569;10 µA;
0.0636292;78.3354;1.87195e-05;1;847;0.00465329;-0.00405569;10 µA;
0.0782776;78.8237;2.77679e-05;1;853;0.00465329;-0.00405569;10 µA;
0.092926;79.312;3.62488e-05;1;859;0.00465329;-0.00405569;10 µA;
0.107574;79.8003;4.41833e-05;1;865;0.00465329;-0.00405569;10 µA;
0.122223;80.2885;5.16327e-05;1;871;0.00465329;-0.00405569;10 µA;
0.136871;80.7768;5.87158e-05;1;877;0.00465329;-0.00405569;10 µA;
0.15152;81.2651;6.53076e-05;1;883;0.00465329;-0.00405569;100 µA;
0.166168;81.7534;7.17163e-05;1;889;0.00465329;-0.00405569;100 µA;
0.180817;82.2417;7.79114e-05;1;895;0.00465329;-0.00405569;100 µA;
0.195465;82.7299;8.38318e-05;1;901;0.00465329;-0.00405569;100 µA;
0.210114;83.2182;8.96606e-05;1;907;0.00465329;-0.00405569;100 µA;
0.224762;83.7065;9.53064e-05;1;913;0.00465329;-0.00405569;100 µA;
0.23941;84.1948;0.000100769;1;919;0.00465329;-0.00405569;100 µA;
0.254059;84.6831;0.00010614;1;925;0.00465329;-0.00405569;100 µA;
0.268707;85.1713;0.000111298;1;931;0.00465329;-0.00405569;100 µA;
0.283356;85.6596;0.000116333;1;937;0.00465329;-0.00405569;100 µA;
0.298004;86.1479;0.000121277;1;943;0.00465329;-0.00405569;100 µA;
0.312653;86.6362;0.00012619;2;949;0.00381677;-0.00380536;100 µA;
0.327301;87.1245;0.000131012;2;955;0.00381677;-0.00380536;100 µA;
0.341949;87.6127;0.000135834;2;961;0.00381677;-0.00380536;100 µA;
0.356598;88.101;0.000140686;2;967;0.00381677;-0.00380536;100 µA;
0.371246;88.5893;0.000145538;2;973;0.00381677;-0.00380536;100 µA;
0.385895;89.0776;0.00015033;2;979;0.00381677;-0.00380536;100 µA;
0.400543;89.5659;0.000154999;2;985;0.00381677;-0.00380536;100 µA;
0.415192;90.0541;0.000159393;2;991;0.00381677;-0.00380536;100 µA;
0.42984;90.5424;0.000163391;2;997;0.00381677;-0.00380536;100 µA;
0.444489;91.0307;0.000166901;2;1003;0.00381677;-0.00380536;100 µA;
0.459137;91.519;0.000169861;2;1009;0.00381677;-0.00380536;100 µA;
0.473785;92.0073;0.000172211;2;1015;0.00381677;-0.00380536;100 µA;
0.488434;92.4955;0.00017395;2;1021;0.00381677;-0.00380536;100 µA;
0.503082;92.9838;0.000175201;2;1027;0.00381677;-0.00380536;100 µA;
0.517731;93.4721;0.000175903;2;1033;0.00381677;-0.00380536;100 µA;
0.532379;93.9604;0.0001763;2;1039;0.00381677;-0.00380536;100 µA;
0.547028;94.4487;0.00017627;2;1045;0.00381677;-0.00380536;100 µA;
0.561676;94.9369;0.000176056;2;1051;0.00381677;-0.00380536;100 µA;
0.576324;95.4252;0.000175537;2;1057;0.00381677;-0.00380536;100 µA;
0.590973;95.9135;0.000174896;2;1063;0.00381677;-0.00380536;100 µA;
0.605621;96.4018;0.000174103;2;1069;0.00381677;-0.00380536;100 µA;
0.62027;96.8901;0.000173126;2;1075;0.00381677;-0.00380536;100 µA;
0.634918;97.3783;0.000172028;2;1081;0.00381677;-0.00380536;100 µA;
0.649567;97.8666;0.000170807;2;1087;0.00381677;-0.00380536;100 µA;
0.664215;98.3549;0.000169525;2;1093;0.00381677;-0.00380536;100 µA;
0.678864;98.8432;0.000168121;2;1099;0.00381677;-0.00380536;100 µA;
0.693512;99.3315;0.000166718;2;1105;0.00381677;-0.00380536;100 µA;
0.70816;99.8197;0.000165314;2;1111;0.00381677;-0.00380536;100 µA;
0.722809;100.308;0.000163849;2;1117;0.00381677;-0.00380536;100 µA;
0.737457;100.796;0.000162415;2;1123;0.00381677;-0.00380536;100 µA;
0.752106;101.285;0.000161011;2;1129;0.00381677;-0.00380536;100 µA;
0.766754;101.773;0.000159698;2;1135;0.00381677;-0.00380536;100 µA;
0.781403;102.261;0.000158417;2;1141;0.00381677;-0.00380536;100 µA;
0.796051;102.749;0.000157318;2;1147;0.00381677;-0.00380536;100 µA;
0.810699;103.238;0.000156403;2;1153;0.00381677;-0.00380536;100 µA;
0.825348;103.726;0.000155792;2;1159;0.00381677;-0.00380536;100 µA;
0.839996;104.214;0.000155579;2;1165;0.00381677;-0.00380536;100 µA;
0.849762;104.703;0.000146088;2;1171;0.00381677;-0.00380536;100 µA;
0.835114;105.191;0.000109192;2;1177;0.00381677;-0.00380536;100 µA;
0.820465;105.679;8.36182e-05;2;1183;0.00381677;-0.00380536;100 µA;
0.805817;106.167;6.32629e-05;2;1189;0.00381677;-0.00380536;100 µA;
0.791168;106.656;4.63043e-05;2;1195;0.00381677;-0.00380536;100 µA;
0.77652;107.144;3.20465e-05;2;1201;0.00381677;-0.00380536;10 µA;
0.761871;107.632;1.9693e-05;2;1207;0.00381677;-0.00380536;10 µA;
0.747223;108.12;8.92334e-06;2;1213;0.00381677;-0.00380536;10 µA;
0.732574;108.609;-4.47388e-07;2;1219;0.00381677;-0.00380536;10 µA;
0.717926;109.097;-8.70667e-06;2;1225;0.00381677;-0.00380536;10 µA;
0.703278;109.585;-1.60431e-05;2;1231;0.00381677;-0.00380536;10 µA;
0.688629;110.074;-2.25525e-05;2;1237;0.00381677;-0.00380536;10 µA;
0.673981;110.562;-2.83875e-05;2;1243;0.00381677;-0.00380536;10 µA;
0.659332;111.05;-3.36853e-05;2;1249;0.00381677;-0.00380536;10 µA;
0.644684;111.538;-3.8504e-05;2;1255;0.00381677;-0.00380536;10 µA;
0.630035;112.027;-4.29321e-05;2;1261;0.00381677;-0.00380536;10 µA;
0.615387;112.515;-4.70703e-05;2;1267;0.00381677;-0.00380536;10 µA;
0.600739;113.003;-5.09552e-05;2;1273;0.00381677;-0.00380536;10 µA;
0.58609;113.492;-5.46539e-05;2;1279;0.00381677;-0.00380536;10 µA;
0.571442;113.98;-5.82031e-05;2;1285;0.00381677;-0.00380536;10 µA;
0.556793;114.468;-6.17065e-05;2;1291;0.00381677;-0.00380536;100 µA;
0.542145;114.956;-6.51245e-05;2;1297;0.00381677;-0.00380536;100 µA;
0.527496;115.445;-6.8573e-05;2;1303;0.00381677;-0.00380536;100 µA;
0.512848;115.933;-7.2052e-05;2;1309;0.00381677;-0.00380536;100 µA;
0.498199;116.421;-7.55615e-05;2;1315;0.00381677;-0.00380536;100 µA;
0.483551;116.91;-7.91626e-05;2;1321;0.00381677;-0.00380536;100 µA;
0.468903;117.398;-8.28857e-05;2;1327;0.00381677;-0.00380536;100 µA;
0.454254;117.886;-8.6731e-05;2;1333;0.00381677;-0.00380536;100 µA;
0.439606;118.374;-9.08203e-05;2;1339;0.00381677;-0.00380536;100 µA;
0.424957;118.863;-9.50012e-05;2;1345;0.00381677;-0.00380536;100 µA;
0.410309;119.351;-9.94873e-05;2;1351;0.00381677;-0.00380536;100 µA;
0.39566;119.839;-0.000104187;2;1357;0.00381677;-0.00380536;100 µA;
0.381012;120.327;-0.000109192;2;1363;0.00381677;-0.00380536;100 µA;
0.366364;120.816;-0.000114319;2;1369;0.00381677;-0.00380536;100 µA;
0.351715;121.304;-0.000119751;2;1375;0.00381677;-0.00380536;100 µA;
0.337067;121.792;-0.000125244;2;1381;0.00381677;-0.00380536;100 µA;
0.322418;122.281;-0.00013089;2;1387;0.00381677;-0.00380536;100 µA;
0.30777;122.769;-0.000136536;2;1393;0.00381677;-0.00380536;100 µA;
0.293121;123.257;-0.000142059;2;1399;0.00381677;-0.00380536;100 µA;
0.278473;123.745;-0.00014743;2;1405;0.00381677;-0.00380536;100 µA;
0.263824;124.234;-0.000152649;2;1411;0.00381677;-0.00380536;100 µA;
0.249176;124.722;-0.000157562;2;1417;0.00381677;-0.00380536;100 µA;
0.234528;125.21;-0.00016214;2;1423;0.00381677;-0.00380536;100 µA;
0.219879;125.699;-0.000166382;2;1429;0.00381677;-0.00380536;100 µA;
0.205231;126.187;-0.000170349;2;1435;0.00381677;-0.00380536;100 µA;
0.190582;126.675;-0.00017395;2;1441;0.00381677;-0.00380536;100 µA;
0.175934;127.163;-0.000177277;2;1447;0.00381677;-0.00380536;100 µA;
0.161285;127.652;-0.000180267;2;1453;0.00381677;-0.00380536;100 µA;
0.146637;128.14;-0.000182922;2;1459;0.00381677;-0.00380536;100 µA;
0.131989;128.628;-0.000185303;2;1465;0.00381677;-0.00380536;100 µA;
0.11734;129.117;-0.000187286;2;1471;0.00381677;-0.00380536;100 µA;
0.102692;129.605;-0.000189056;2;1477;0.00381677;-0.00380536;100 µA;
0.0880432;130.093;-0.00019046;2;1483;0.00381677;-0.00380536;100 µA;
0.0733948;130.581;-0.000191681;2;1489;0.00381677;-0.00380536;100 µA;
0.0587463;131.07;-0.000192627;2;1495;0.00381677;-0.00380536;100 µA;
0.0440979;131.558;-0.00019342;2;1501;0.00381677;-0.00380536;100 µA;
0.0294495;132.046;-0.000194153;2;1507;0.00381677;-0.00380536;100 µA;
0.014801;132.534;-0.000194672;2;1513;0.00381677;-0.00380536;100 µA;
0.000152588;133.023;-0.000195099;2;1519;0.00381677;-0.00380536;100 µA;
-0.0144958;133.511;-0.000195557;2;1525;0.00381677;-0.00380536;100 µA;
-0.0291443;133.999;-0.000195892;2;1531;0.00381677;-0.00380536;100 µA;
-0.0437927;134.488;-0.000196289;2;1537;0.00381677;-0.00380536;100 µA;
-0.0584412;134.976;-0.000196777;2;1543;0.00381677;-0.00380536;100 µA;
-0.0730896;135.464;-0.000197266;2;1549;0.00381677;-0.00380536;100 µA;
-0.087738;135.952;-0.000198029;2;1555;0.00381677;-0.00380536;100 µA;
-0.0975037;136.441;-0.000188629;2;1561;0.00381677;-0.00380536;100 µA;
-0.0828552;136.929;-0.000148132;2;1567;0.00381677;-0.00380536;100 µA;
-0.0682068;137.417;-0.000119049;2;1573;0.00381677;-0.00380536;100 µA;
-0.0535583;137.906;-9.51843e-05;2;1579;0.00381677;-0.00380536;100 µA;
-0.0389099;138.394;-7.47375e-05;2;1585;0.00381677;-0.00380536;100 µA;
-0.0242615;138.882;-5.68542e-05;2;1591;0.00381677;-0.00380536;100 µA;
-0.00961304;139.37;-4.0921e-05;2;1597;0.00381677;-0.00380536;100 µA;
0.0050354;139.859;-2.65381e-05;2;1603;0.00381677;-0.00380536;10 µA;
0.0196838;140.347;-1.41113e-05;2;1609;0.00381677;-0.00380536;10 µA;
0.0343323;140.835;-2.10968e-06;2;1615;0.00381677;-0.00380536;10 µA;
0.0489807;141.324;8.79211e-06;2;1621;0.00381677;-0.00380536;10 µA;
0.0636292;141.812;1.87805e-05;2;1627;0.00381677;-0.00380536;10 µA;
0.0782776;142.3;2.7948e-05;2;1633;0.00381677;-0.00380536;10 µA;
0.092926;142.788;3.64899e-05;2;1639;0.00381677;-0.00380536;10 µA;
0.107574;143.277;4.44855e-05;2;1645;0.00381677;-0.00380536;10 µA;
0.122223;143.765;5.21515e-05;2;1651;0.00381677;-0.00380536;10 µA;
0.136871;144.253;5.9256e-05;2;1657;0.00381677;-0.00380536;10 µA;
0.15152;144.741;6.5918e-05;2;1663;0.00381677;-0.00380536;100 µA;
0.166168;145.23;7.23572e-05;2;1669;0.00381677;-0.00380536;100 µA;
0.180817;145.718;7.85828e-05;2;1675;0.00381677;-0.00380536;100 µA;
0.195465;146.206;8.45642e-05;2;1681;0.00381677;-0.00380536;100 µA;
0.210114;146.695;9.04236e-05;2;1687;0.00381677;-0.00380536;100 µA;
0.224762;147.183;9.61304e-05;2;1693;0.00381677;-0.00380536;100 µA;
0.23941;147.671;0.000101654;2;1699;0.00381677;-0.00380536;100 µA;
0.254059;148.159;0.000107025;2;1705;0.00381677;-0.00380536;100 µA;
0.268707;148.648;0.000112244;2;1711;0.00381677;-0.00380536;100 µA;
0.283356;149.136;0.00011731;2;1717;0.00381677;-0.00380536;100 µA;
0.298004;149.624;0.000122284;2;1723;0.00381677;-0.00380536;100 µA;
0.312653;150.113;0.000127228;3;1729;0.00381977;-0.00383412;100 µA;
0.327301;150.601;0.00013208;3;1735;0.00381977;-0.00383412;100 µA;
0.341949;151.089;0.000136963;3;1741;0.00381977;-0.00383412;100 µA;
0.356598;151.577;0.000141785;3;1747;0.00381977;-0.00383412;100 µA;
0.371246;152.066;0.000146698;3;1753;0.00381977;-0.00383412;100 µA;
0.385895;152.554;0.00015152;3;1759;0.00381977;-0.00383412;100 µA;
0.400543;153.042;0.00015625;3;1765;0.00381977;-0.00383412;100 µA;
0.415192;153.531;0.000160675;3;1771;0.00381977;-0.00383412;100 µA;
0.42984;154.019;0.000164612;3;1777;0.00381977;-0.00383412;100 µA;
0.444489;154.507;0.00016806;3;1783;0.00381977;-0.00383412;100 µA;
0.459137;154.995;0.000171021;3;1789;0.00381977;-0.00383412;100 µA;
0.473785;155.484;0.000173248;3;1795;0.00381977;-0.00383412;100 µA;
0.488434;155.972;0.000174896;3;1801;0.00381977;-0.00383412;100 µA;
0.503082;156.46;0.000176056;3;1807;0.00381977;-0.00383412;100 µA;
0.517731;156.948;0.000176636;3;1813;0.00381977;-0.00383412;100 µA;
0.532379;157.437;0.000176849;3;1819;0.00381977;-0.00383412;100 µA;
0.547028;157.925;0.000176666;3;1825;0.00381977;-0.00383412;100 µA;
0.561676;158.413;0.0001763;3;1831;0.00381977;-0.00383412;100 µA;
0.576324;158.902;0.00017569;3;1837;0.00381977;-0.00383412;100 µA;
0.590973;159.39;0.000174896;3;1843;0.00381977;-0.00383412;100 µA;
0.605621;159.878;0.00017395;3;1849;0.00381977;-0.00383412;100 µA;
0.62027;160.366;0.000172852;3;1855;0.00381977;-0.00383412;100 µA;
0.634918;160.855;0.000171661;3;1861;0.00381977;-0.00383412;100 µA;
0.649567;161.343;0.000170349;3;1867;0.00381977;-0.00383412;100 µA;
0.664215;161.831;0.000168945;3;1873;0.00381977;-0.00383412;100 µA;
0.678864;162.32;0.000167511;3;1879;0.00381977;-0.00383412;100 µA;
0.693512;162.808;0.000166077;3;1885;0.00381977;-0.00383412;100 µA;
0.70816;163.296;0.000164581;3;1891;0.00381977;-0.00383412;100 µA;
0.722809;163.784;0.000163116;3;1897;0.00381977;-0.00383412;100 µA;
0.737457;164.273;0.000161682;3;1903;0.00381977;-0.00383412;100 µA;
0.752106;164.761;0.000160248;3;1909;0.00381977;-0.00383412;100 µA;
0.766754;165.249;0.000158936;3;1915;0.00381977;-0.00383412;100 µA;
0.781403;165.738;0.000157623;3;1921;0.00381977;-0.00383412;100 µA;
0.796051;166.226;0.000156555;3;1927;0.00381977;-0.00383412;100 µA;
0.810699;166.714;0.00015567;3;1933;0.00381977;-0.00383412;100 µA;
0.825348;167.202;0.000155029;3;1939;0.00381977;-0.00383412;100 µA;
0.839996;167.691;0.000154846;3;1945;0.00381977;-0.00383412;100 µA;
0.849762;168.179;0.000145172;3;1951;0.00381977;-0.00383412;100 µA;
0.835114;168.667;0.000107666;3;1957;0.00381977;-0.00383412;100 µA;
0.820465;169.155;8.17261e-05;3;1963;0.00381977;-0.00383412;100 µA;
0.805817;169.644;6.12488e-05;3;1969;0.00381977;-0.00383412;100 µA;
0.791168;170.132;4.42108e-05;3;1975;0.00381977;-0.00383412;100 µA;
0.77652;170.62;2.99377e-05;3;1981;0.00381977;-0.00383412;10 µA;
0.761871;171.109;1.75751e-05;3;1987;0.00381977;-0.00383412;10 µA;
0.747223;171.597;6.90918e-06;3;1993;0.00381977;-0.00383412;10 µA;
0.732574;172.085;-2.37823e-06;3;1999;0.00381977;-0.00383412;10 µA;
0.717926;172.573;-1.05408e-05;3;2005;0.00381977;-0.00383412;10 µA;
0.703278;173.062;-1.7749e-05;3;2011;0.00381977;-0.00383412;10 µA;
0.688629;173.55;-2.41333e-05;3;2017;0.00381977;-0.00383412;10 µA;
0.673981;174.038;-2.98737e-05;3;2023;0.00381977;-0.00383412;10 µA;
0.659332;174.527;-3.50464e-05;3;2029;0.00381977;-0.00383412;10 µA;
0.644684;175.015;-3.97614e-05;3;2035;0.00381977;-0.00383412;10 µA;
0.630035;175.503;-4.40887e-05;3;2041;0.00381977;-0.00383412;10 µA;
0.615387;175.991;-4.81506e-05;3;2047;0.00381977;-0.00383412;10 µA;
0.600739;176.48;-5.19745e-05;3;2053;0.00381977;-0.00383412;10 µA;
0.58609;176.968;-5.55908e-05;3;2059;0.00381977;-0.00383412;10 µA;
0.571442;177.456;-5.91278e-05;3;2065;0.00381977;-0.00383412;10 µA;
0.556793;177.945;-6.25916e-05;3;2071;0.00381977;-0.00383412;100 µA;
0.542145;178.433;-6.5979e-05;3;2077;0.00381977;-0.00383412;100 µA;
0.527496;178.921;-6.9397e-05;3;2083;0.00381977;-0.00383412;100 µA;
0.512848;179.409;-7.28149e-05;3;2089;0.00381977;-0.00383412;100 µA;
0.498199;179.898;-7.63245e-05;3;2095;0.00381977;-0.00383412;100 µA;
0.483551;180.386;-7.99561e-05;3;2101;0.00381977;-0.00383412;100 µA;
0.468903;180.874;-8.37097e-05;3;2107;0.00381977;-0.00383412;100 µA;
0.454254;181.362;-8.75854e-05;3;2113;0.00381977;-0.00383412;100 µA;
0.439606;181.851;-9.16748e-05;3;2119;0.00381977;-0.00383412;100 µA;
0.424957;182.339;-9.58557e-05;3;2125;0.00381977;-0.00383412;100 µA;
0.410309;182.827;-0.000100403;3;2131;0.00381977;-0.00383412;100 µA;
0.39566;183.316;-0.000105133;3;2137;0.00381977;-0.00383412;100 µA;
0.381012;183.804;-0.000110168;3;2143;0.00381977;-0.00383412;100 µA;
0.366364;184.292;-0.000115448;3;2149;0.00381977;-0.00383412;100 µA;
0.351715;184.78;-0.000120911;3;2155;0.00381977;-0.00383412;100 µA;
0.337067;185.269;-0.000126526;3;2161;0.00381977;-0.00383412;100 µA;
0.322418;185.757;-0.000132233;3;2167;0.00381977;-0.00383412;100 µA;
0.30777;186.245;-0.000138;3;2173;0.00381977;-0.00383412;100 µA;
0.293121;186.734;-0.000143555;3;2179;0.00381977;-0.00383412;100 µA;
0.278473;187.222;-0.000148987;3;2185;0.00381977;-0.00383412;100 µA;
0.263824;187.71;-0.000154266;3;2191;0.00381977;-0.00383412;100 µA;
0.249176;188.198;-0.00015921;3;2197;0.00381977;-0.00383412;100 µA;
0.234528;188.687;-0.000163818;3;2203;0.00381977;-0.00383412;100 µA;
0.219879;189.175;-0.000168091;3;2209;0.00381977;-0.00383412;100 µA;
0.205231;189.663;-0.000172058;3;2215;0.00381977;-0.00383412;100 µA;
0.190582;190.152;-0.000175629;3;2221;0.00381977;-0.00383412;100 µA;
0.175934;190.64;-0.000178894;3;2227;0.00381977;-0.00383412;100 µA;
0.161285;191.128;-0.000181885;3;2233;0.00381977;-0.00383412;100 µA;
0.146637;191.616;-0.000184509;3;2239;0.00381977;-0.00383412;100 µA;
0.131989;192.105;-0.000186829;3;2245;0.00381977;-0.00383412;100 µA;
0.11734;192.593;-0.000188812;3;2251;0.00381977;-0.00383412;100 µA;
0.102692;193.081;-0.00019046;3;2257;0.00381977;-0.00383412;100 µA;
0.0880432;193.569;-0.000191833;3;2263;0.00381977;-0.00383412;100 µA;
0.0733948;194.058;-0.000192993;3;2269;0.00381977;-0.00383412;100 µA;
0.0587463;194.546;-0.000193848;3;2275;0.00381977;-0.00383412;100 µA;
0.0440979;195.034;-0.000194641;3;2281;0.00381977;-0.00383412;100 µA;
0.0294495;195.523;-0.000195221;3;2287;0.00381977;-0.00383412;100 µA;
0.014801;196.011;-0.000195648;3;2293;0.00381977;-0.00383412;100 µA;
0.000152588;196.499;-0.000196045;3;2299;0.00381977;-0.00383412;100 µA;
-0.0144958;196.987;-0.000196381;3;2305;0.00381977;-0.00383412;100 µA;
-0.0291443;197.476;-0.000196777;3;2311;0.00381977;-0.00383412;100 µA;
-0.0437927;197.964;-0.000197113;3;2317;0.00381977;-0.00383412;100 µA;
-0.0584412;198.452;-0.00019754;3;2323;0.00381977;-0.00383412;100 µA;
-0.0730896;198.941;-0.00019812;3;2329;0.00381977;-0.00383412;100 µA;
-0.087738;199.429;-0.000198883;3;2335;0.00381977;-0.00383412;100 µA;
-0.0975037;199.917;-0.000189301;3;2341;0.00381977;-0.00383412;100 µA;
-0.0828552;200.405;-0.000148041;3;2347;0.00381977;-0.00383412;100 µA;
-0.0682068;200.894;-0.000118561;3;2353;0.00381977;-0.00383412;100 µA;
-0.0535583;201.382;-9.43604e-05;3;2359;0.00381977;-0.00383412;100 µA;
-0.0389099;201.87;-7.36389e-05;3;2365;0.00381977;-0.00383412;100 µA;
-0.0242615;202.359;-5.5542e-05;3;2371;0.00381977;-0.00383412;100 µA;
-0.00961304;202.847;-3.95325e-05;3;2377;0.00381977;-0.00383412;100 µA;
0.0050354;203.335;-2.5061e-05;3;2383;0.00381977;-0.00383412;10 µA;
0.0196838;203.823;-1.21399e-05;3;2389;0.00381977;-0.00383412;10 µA;
0.0343323;204.312;-4.06494e-07;3;2395;0.00381977;-0.00383412;10 µA;
0.0489807;204.8;1.02997e-05;3;2401;0.00381977;-0.00383412;10 µA;
0.0636292;205.288;2.01324e-05;3;2407;0.00381977;-0.00383412;10 µA;
0.0782776;205.776;2.91412e-05;3;2413;0.00381977;-0.00383412;10 µA;
0.092926;206.265;3.76862e-05;3;2419;0.00381977;-0.00383412;10 µA;
0.107574;206.753;4.55505e-05;3;2425;0.00381977;-0.00383412;10 µA;
0.122223;207.241;5.2948e-05;3;2431;0.00381977;-0.00383412;10 µA;
0.136871;207.73;6.00067e-05;3;2437;0.00381977;-0.00383412;10 µA;
0.15152;208.218;6.65588e-05;3;2443;0.00381977;-0.00383412;100 µA;
0.166168;208.706;7.29675e-05;3;2449;0.00381977;-0.00383412;100 µA;
0.180817;209.194;7.91626e-05;3;2455;0.00381977;-0.00383412;100 µA;
0.195465;209.683;8.51135e-05;3;2461;0.00381977;-0.00383412;100 µA;
0.210114;210.171;9.10034e-05;3;2467;0.00381977;-0.00383412;100 µA;
0.224762;210.659;9.66187e-05;3;2473;0.00381977;-0.00383412;100 µA;
0.23941;211.148;0.000102142;3;2479;0.00381977;-0.00383412;100 µA;
0.254059;211.636;0.000107544;3;2485;0.00381977;-0.00383412;100 µA;
0.268707;212.124;0.000112732;3;2491;0.00381977;-0.00383412;100 µA;
0.283356;212.612;0.000117798;3;2497;0.00381977;-0.00383412;100 µA;
0.298004;213.101;0.000122772;3;2503;0.00381977;-0.00383412;100 µA;
0.312653;213.589;0.000127686;4;2509;0.00382424;-0.00383993;100 µA;
0.327301;214.077;0.000132568;4;2515;0.00382424;-0.00383993;100 µA;
0.341949;214.566;0.000137451;4;2521;0.00382424;-0.00383993;100 µA;
0.356598;215.054;0.000142273;4;2527;0.00382424;-0.00383993;100 µA;
0.371246;215.542;0.000147217;4;2533;0.00382424;-0.00383993;100 µA;
0.385895;216.03;0.000152039;4;2539;0.00382424;-0.00383993;100 µA;
0.400543;216.519;0.000156677;4;2545;0.00382424;-0.00383993;100 µA;
0.415192;217.007;0.000161102;4;2551;0.00382424;-0.00383993;100 µA;
0.42984;217.495;0.000165039;4;2557;0.00382424;-0.00383993;100 µA;
0.444489;217.983;0.000168579;4;2563;0.00382424;-0.00383993;100 µA;
0.459137;218.472;0.000171417;4;2569;0.00382424;-0.00383993;100 µA;
0.473785;218.96;0.000173706;4;2575;0.00382424;-0.00383993;100 µA;
0.488434;219.448;0.000175354;4;2581;0.00382424;-0.00383993;100 µA;
0.503082;219.937;0.000176392;4;2587;0.00382424;-0.00383993;100 µA;
0.517731;220.425;0.000176941;4;2593;0.00382424;-0.00383993;100 µA;
0.532379;220.913;0.000177124;4;2599;0.00382424;-0.00383993;100 µA;
0.547028;221.401;0.000176941;4;2605;0.00382424;-0.00383993;100 µA;
0.561676;221.89;0.000176605;4;2611;0.00382424;-0.00383993;100 µA;
0.576324;222.378;0.000175934;4;2617;0.00382424;-0.00383993;100 µA;
0.590973;222.866;0.00017514;4;2623;0.00382424;-0.00383993;100 µA;
0.605621;223.355;0.000174164;4;2629;0.00382424;-0.00383993;100 µA;
0.62027;223.843;0.000173065;4;2635;0.00382424;-0.00383993;100 µA;
0.634918;224.331;0.000171875;4;2641;0.00382424;-0.00383993;100 µA;
0.649567;224.819;0.000170563;4;2647;0.00382424;-0.00383993;100 µA;
0.664215;225.308;0.000169159;4;2653;0.00382424;-0.00383993;100 µA;
0.678864;225.796;0.000167694;4;2659;0.00382424;-0.00383993;100 µA;
0.693512;226.284;0.000166229;4;2665;0.00382424;-0.00383993;100 µA;
0.70816;226.773;0.000164734;4;2671;0.00382424;-0.00383993;100 µA;
0.722809;227.261;0.000163239;4;2677;0.00382424;-0.00383993;100 µA;
0.737457;227.749;0.000161774;4;2683;0.00382424;-0.00383993;100 µA;
0.752106;228.237;0.000160309;4;2689;0.00382424;-0.00383993;100 µA;
0.766754;228.726;0.000158966;4;2695;0.00382424;-0.00383993;100 µA;
0.781403;229.214;0.000157623;4;2701;0.00382424;-0.00383993;100 µA;
0.796051;229.702;0.000156494;4;2707;0.00382424;-0.00383993;100 µA;
0.810699;230.19;0.000155518;4;2713;0.00382424;-0.00383993;100 µA;
0.825348;230.679;0.000154846;4;2719;0.00382424;-0.00383993;100 µA;
0.839996;231.167;0.000154633;4;2725;0.00382424;-0.00383993;100 µA;
0.849762;231.655;0.000144867;4;2731;0.00382424;-0.00383993;100 µA;
0.835114;232.144;0.000107178;4;2737;0.00382424;-0.00383993;100 µA;
0.820465;232.632;8.12378e-05;4;2743;0.00382424;-0.00383993;100 µA;
0.805817;233.12;6.06995e-05;4;2749;0.00382424;-0.00383993;100 µA;
0.791168;233.608;4.3692e-05;4;2755;0.00382424;-0.00383993;100 µA;
0.77652;234.097;2.94525e-05;4;2761;0.00382424;-0.00383993;10 µA;
0.761871;234.585;1.71143e-05;4;2767;0.00382424;-0.00383993;10 µA;
0.747223;235.073;6.45447e-06;4;2773;0.00382424;-0.00383993;10 µA;
0.732574;235.562;-2.80426e-06;4;2779;0.00382424;-0.00383993;1 µA;
0.717926;236.05;-1.09375E-05;4;2785;0.00382424;-0.00383993;10 µA;
0.703278;236.538;-1.8103e-05;4;2791;0.00382424;-0.00383993;10 µA;
0.688629;237.026;-2.44598e-05;4;2797;0.00382424;-0.00383993;10 µA;
0.673981;237.515;-3.01941e-05;4;2803;0.00382424;-0.00383993;10 µA;
0.659332;238.003;-3.53241e-05;4;2809;0.00382424;-0.00383993;10 µA;
0.644684;238.491;-4.00146e-05;4;2815;0.00382424;-0.00383993;10 µA;
0.630035;238.98;-4.43268e-05;4;2821;0.00382424;-0.00383993;10 µA;
0.615387;239.468;-4.83673e-05;4;2827;0.00382424;-0.00383993;10 µA;
0.600739;239.956;-5.21698e-05;4;2833;0.00382424;-0.00383993;10 µA;
0.58609;240.444;-5.57922e-05;4;2839;0.00382424;-0.00383993;10 µA;
0.571442;240.933;-5.92834e-05;4;2845;0.00382424;-0.00383993;10 µA;
0.556793;241.421;-6.27747e-05;4;2851;0.00382424;-0.00383993;100 µA;
0.542145;241.909;-6.61316e-05;4;2857;0.00382424;-0.00383993;100 µA;
0.527496;242.397;-6.9519e-05;4;2863;0.00382424;-0.00383993;100 µA;
0.512848;242.886;-7.2998e-05;4;2869;0.00382424;-0.00383993;100 µA;
0.498199;243.374;-7.65076e-05;4;2875;0.00382424;-0.00383993;100 µA;
0.483551;243.862;-8.01392e-05;4;2881;0.00382424;-0.00383993;100 µA;
0.468903;244.351;-8.38623e-05;4;2887;0.00382424;-0.00383993;100 µA;
0.454254;244.839;-8.77686e-05;4;2893;0.00382424;-0.00383993;100 µA;
0.439606;245.327;-9.18274e-05;4;2899;0.00382424;-0.00383993;100 µA;
0.424957;245.815;-9.60693e-05;4;2905;0.00382424;-0.00383993;100 µA;
0.410309;246.304;-0.000100616;4;2911;0.00382424;-0.00383993;100 µA;
0.39566;246.792;-0.000105408;4;2917;0.00382424;-0.00383993;100 µA;
0.381012;247.28;-0.000110443;4;2923;0.00382424;-0.00383993;100 µA;
0.366364;247.769;-0.000115692;4;2929;0.00382424;-0.00383993;100 µA;
0.351715;248.257;-0.000121185;4;2935;0.00382424;-0.00383993;100 µA;
0.337067;248.745;-0.000126801;4;2941;0.00382424;-0.00383993;100 µA;
0.322418;249.233;-0.000132538;4;2947;0.00382424;-0.00383993;100 µA;
0.30777;249.722;-0.000138245;4;2953;0.00382424;-0.00383993;100 µA;
0.293121;250.21;-0.00014386;4;2959;0.00382424;-0.00383993;100 µA;
0.278473;250.698;-0.000149384;4;2965;0.00382424;-0.00383993;100 µA;
0.263824;251.187;-0.000154633;4;2971;0.00382424;-0.00383993;100 µA;
0.249176;251.675;-0.000159576;4;2977;0.00382424;-0.00383993;100 µA;
0.234528;252.163;-0.000164185;4;2983;0.00382424;-0.00383993;100 µA;
0.219879;252.651;-0.000168488;4;2989;0.00382424;-0.00383993;100 µA;
0.205231;253.14;-0.000172424;4;2995;0.00382424;-0.00383993;100 µA;
0.190582;253.628;-0.000176025;4;3001;0.00382424;-0.00383993;100 µA;
0.175934;254.116;-0.00017926;4;3007;0.00382424;-0.00383993;100 µA;
0.161285;254.604;-0.000182251;4;3013;0.00382424;-0.00383993;100 µA;
0.146637;255.093;-0.000184845;4;3019;0.00382424;-0.00383993;100 µA;
0.131989;255.581;-0.000187164;4;3025;0.00382424;-0.00383993;100 µA;
0.11734;256.069;-0.000189178;4;3031;0.00382424;-0.00383993;100 µA;
0.102692;256.558;-0.000190826;4;3037;0.00382424;-0.00383993;100 µA;
0.0880432;257.046;-0.000192169;4;3043;0.00382424;-0.00383993;100 µA;
0.0733948;257.534;-0.000193237;4;3049;0.00382424;-0.00383993;100 µA;
0.0587463;258.022;-0.000194153;4;3055;0.00382424;-0.00383993;100 µA;
0.0440979;258.511;-0.000194855;4;3061;0.00382424;-0.00383993;100 µA;
0.0294495;258.999;-0.000195404;4;3067;0.00382424;-0.00383993;100 µA;
0.014801;259.487;-0.000195923;4;3073;0.00382424;-0.00383993;100 µA;
0.000152588;259.976;-0.000196259;4;3079;0.00382424;-0.00383993;100 µA;
-0.0144958;260.464;-0.000196655;4;3085;0.00382424;-0.00383993;100 µA;
-0.0291443;260.952;-0.000196899;4;3091;0.00382424;-0.00383993;100 µA;
-0.0437927;261.44;-0.000197266;4;3097;0.00382424;-0.00383993;100 µA;
-0.0584412;261.929;-0.000197662;4;3103;0.00382424;-0.00383993;100 µA;
-0.0730896;262.417;-0.000198181;4;3109;0.00382424;-0.00383993;100 µA;
-0.087738;262.905;-0.000198914;4;3115;0.00382424;-0.00383993;100 µA;
-0.0975037;263.394;-0.000189301;4;3121;0.00382424;-0.00383993;100 µA;
-0.0828552;263.882;-0.000147858;4;3127;0.00382424;-0.00383993;100 µA;
-0.0682068;264.37;-0.000118256;4;3133;0.00382424;-0.00383993;100 µA;
-0.0535583;264.858;-9.39941e-05;4;3139;0.00382424;-0.00383993;100 µA;
-0.0389099;265.347;-7.33032e-05;4;3145;0.00382424;-0.00383993;100 µA;
-0.0242615;265.835;-5.52063e-05;4;3151;0.00382424;-0.00383993;100 µA;
-0.00961304;266.323;-3.91693e-05;4;3157;0.00382424;-0.00383993;100 µA;
0.0050354;266.811;-2.47253e-05;4;3163;0.00382424;-0.00383993;10 µA;
0.0196838;267.3;-1.18134e-05;4;3169;0.00382424;-0.00383993;10 µA;
0.0343323;267.788;-1.19019e-07;4;3175;0.00382424;-0.00383993;10 µA;
0.0489807;268.276;1.05743e-05;4;3181;0.00382424;-0.00383993;10 µA;
0.0636292;268.765;2.03857e-05;4;3187;0.00382424;-0.00383993;10 µA;
0.0782776;269.253;2.93915e-05;4;3193;0.00382424;-0.00383993;10 µA;
0.092926;269.741;3.78021e-05;4;3199;0.00382424;-0.00383993;10 µA;
0.107574;270.229;4.56909e-05;4;3205;0.00382424;-0.00383993;10 µA;
0.122223;270.718;5.31281e-05;4;3211;0.00382424;-0.00383993;10 µA;
0.136871;271.206;6.01593e-05;4;3217;0.00382424;-0.00383993;10 µA;
0.15152;271.694;6.67419e-05;4;3223;0.00382424;-0.00383993;100 µA;
0.166168;272.183;7.31506e-05;4;3229;0.00382424;-0.00383993;100 µA;
0.180817;272.671;7.93457e-05;4;3235;0.00382424;-0.00383993;100 µA;
0.195465;273.159;8.52966e-05;4;3241;0.00382424;-0.00383993;100 µA;
0.210114;273.647;9.11255e-05;4;3247;0.00382424;-0.00383993;100 µA;
0.224762;274.136;9.68018e-05;4;3253;0.00382424;-0.00383993;100 µA;
0.23941;274.624;0.000102325;4;3259;0.00382424;-0.00383993;100 µA;
0.254059;275.112;0.000107727;4;3265;0.00382424;-0.00383993;100 µA;
0.268707;275.601;0.000112915;4;3271;0.00382424;-0.00383993;100 µA;
0.283356;276.089;0.000118011;4;3277;0.00382424;-0.00383993;100 µA;
0.298004;276.577;0.000122986;4;3283;0.00382424;-0.00383993;100 µA;
0.312653;277.065;0.000127899;5;3289;0.00382609;-0.0038439;100 µA;
0.327301;277.554;0.000132782;5;3295;0.00382609;-0.0038439;100 µA;
0.341949;278.042;0.000137665;5;3301;0.00382609;-0.0038439;100 µA;
0.356598;278.53;0.000142487;5;3307;0.00382609;-0.0038439;100 µA;
0.371246;279.018;0.000147461;5;3313;0.00382609;-0.0038439;100 µA;
0.385895;279.507;0.000152283;5;3319;0.00382609;-0.0038439;100 µA;
0.400543;279.995;0.000156952;5;3325;0.00382609;-0.0038439;100 µA;
0.415192;280.483;0.000161377;5;3331;0.00382609;-0.0038439;100 µA;
0.42984;280.972;0.000165314;5;3337;0.00382609;-0.0038439;100 µA;
0.444489;281.46;0.000168823;5;3343;0.00382609;-0.0038439;100 µA;
0.459137;281.948;0.000171661;5;3349;0.00382609;-0.0038439;100 µA;
0.473785;282.436;0.00017392;5;3355;0.00382609;-0.0038439;100 µA;
0.488434;282.925;0.000175568;5;3361;0.00382609;-0.0038439;100 µA;
0.503082;283.413;0.000176605;5;3367;0.00382609;-0.0038439;100 µA;
0.517731;283.901;0.000177155;5;3373;0.00382609;-0.0038439;100 µA;
0.532379;284.39;0.000177338;5;3379;0.00382609;-0.0038439;100 µA;
0.547028;284.878;0.000177124;5;3385;0.00382609;-0.0038439;100 µA;
0.561676;285.366;0.000176727;5;3391;0.00382609;-0.0038439;100 µA;
0.576324;285.854;0.000176056;5;3397;0.00382609;-0.0038439;100 µA;
0.590973;286.343;0.000175262;5;3403;0.00382609;-0.0038439;100 µA;
0.605621;286.831;0.000174286;5;3409;0.00382609;-0.0038439;100 µA;
0.62027;287.319;0.000173157;5;3415;0.00382609;-0.0038439;100 µA;
0.634918;287.808;0.000171967;5;3421;0.00382609;-0.0038439;100 µA;
0.649567;288.296;0.000170654;5;3427;0.00382609;-0.0038439;100 µA;
0.664215;288.784;0.00016922;5;3433;0.00382609;-0.0038439;100 µA;
0.678864;289.272;0.000167725;5;3439;0.00382609;-0.0038439;100 µA;
0.693512;289.761;0.00016626;5;3445;0.00382609;-0.0038439;100 µA;
0.70816;290.249;0.000164703;5;3451;0.00382609;-0.0038439;100 µA;
0.722809;290.737;0.000163208;5;3457;0.00382609;-0.0038439;100 µA;
0.737457;291.225;0.000161713;5;3463;0.00382609;-0.0038439;100 µA;
0.752106;291.714;0.000160248;5;3469;0.00382609;-0.0038439;100 µA;
0.766754;292.202;0.000158844;5;3475;0.00382609;-0.0038439;100 µA;
0.781403;292.69;0.000157532;5;3481;0.00382609;-0.0038439;100 µA;
0.796051;293.179;0.000156342;5;3487;0.00382609;-0.0038439;100 µA;
0.810699;293.667;0.000155365;5;3493;0.00382609;-0.0038439;100 µA;
0.825348;294.155;0.000154633;5;3499;0.00382609;-0.0038439;100 µA;
0.839996;294.643;0.000154327;5;3505;0.00382609;-0.0038439;100 µA;
0.849762;295.132;0.000144501;5;3511;0.00382609;-0.0038439;100 µA;
0.835114;295.62;0.000106781;5;3517;0.00382609;-0.0038439;100 µA;
0.820465;296.108;8.08105e-05;5;3523;0.00382609;-0.0038439;100 µA;
0.805817;296.597;6.03027e-05;5;3529;0.00382609;-0.0038439;100 µA;
0.791168;297.085;4.33167e-05;5;3535;0.00382609;-0.0038439;100 µA;
0.77652;297.573;2.90924e-05;5;3541;0.00382609;-0.0038439;10 µA;
0.761871;298.061;1.67725e-05;5;3547;0.00382609;-0.0038439;10 µA;
0.747223;298.55;6.15234e-06;5;3553;0.00382609;-0.0038439;10 µA;
0.732574;299.038;-3.08594e-06;5;3559;0.00382609;-0.0038439;1 µA;
0.717926;299.526;-1.11969e-05;5;3565;0.00382609;-0.0038439;10 µA;
0.703278;300.015;-1.83441e-05;5;3571;0.00382609;-0.0038439;10 µA;
0.688629;300.503;-2.46857e-05;5;3577;0.00382609;-0.0038439;10 µA;
0.673981;300.991;-3.03741e-05;5;3583;0.00382609;-0.0038439;10 µA;
0.659332;301.479;-3.55011e-05;5;3589;0.00382609;-0.0038439;10 µA;
0.644684;301.968;-4.01611e-05;5;3595;0.00382609;-0.0038439;10 µA;
0.630035;302.456;-4.44794e-05;5;3601;0.00382609;-0.0038439;10 µA;
0.615387;302.944;-4.85016e-05;5;3607;0.00382609;-0.0038439;10 µA;
0.600739;303.432;-5.22736e-05;5;3613;0.00382609;-0.0038439;10 µA;
0.58609;303.921;-5.5896e-05;5;3619;0.00382609;-0.0038439;10 µA;
0.571442;304.409;-5.93781e-05;5;3625;0.00382609;-0.0038439;10 µA;
0.556793;304.897;-6.28357e-05;5;3631;0.00382609;-0.0038439;100 µA;
0.542145;305.386;-6.62231e-05;5;3637;0.00382609;-0.0038439;100 µA;
0.527496;305.874;-6.96106e-05;5;3643;0.00382609;-0.0038439;100 µA;
0.512848;306.362;-7.30591e-05;5;3649;0.00382609;-0.0038439;100 µA;
0.498199;306.85;-7.65991e-05;5;3655;0.00382609;-0.0038439;100 µA;
0.483551;307.339;-8.01697e-05;5;3661;0.00382609;-0.0038439;100 µA;
0.468903;307.827;-8.39233e-05;5;3667;0.00382609;-0.0038439;100 µA;
0.454254;308.315;-8.78601e-05;5;3673;0.00382609;-0.0038439;100 µA;
0.439606;308.804;-9.19189e-05;5;3679;0.00382609;-0.0038439;100 µA;
0.424957;309.292;-9.61609e-05;5;3685;0.00382609;-0.0038439;100 µA;
0.410309;309.78;-0.000100708;5;3691;0.00382609;-0.0038439;100 µA;
0.39566;310.268;-0.000105469;5;3697;0.00382609;-0.0038439;100 µA;
0.381012;310.757;-0.000110535;5;3703;0.00382609;-0.0038439;100 µA;
0.366364;311.245;-0.000115845;5;3709;0.00382609;-0.0038439;100 µA;
0.351715;311.733;-0.000121338;5;3715;0.00382609;-0.0038439;100 µA;
0.337067;312.222;-0.000126953;5;3721;0.00382609;-0.0038439;100 µA;
0.322418;312.71;-0.000132721;5;3727;0.00382609;-0.0038439;100 µA;
0.30777;313.198;-0.000138489;5;3733;0.00382609;-0.0038439;100 µA;
0.293121;313.686;-0.000144104;5;3739;0.00382609;-0.0038439;100 µA;
0.278473;314.175;-0.000149597;5;3745;0.00382609;-0.0038439;100 µA;
0.263824;314.663;-0.000154846;5;3751;0.00382609;-0.0038439;100 µA;
0.249176;315.151;-0.000159821;5;3757;0.00382609;-0.0038439;100 µA;
0.234528;315.639;-0.00016449;5;3763;0.00382609;-0.0038439;100 µA;
0.219879;316.128;-0.000168762;5;3769;0.00382609;-0.0038439;100 µA;
0.205231;316.616;-0.000172729;5;3775;0.00382609;-0.0038439;100 µA;
0.190582;317.104;-0.0001763;5;3781;0.00382609;-0.0038439;100 µA;
0.175934;317.593;-0.000179596;5;3787;0.00382609;-0.0038439;100 µA;
0.161285;318.081;-0.000182495;5;3793;0.00382609;-0.0038439;100 µA;
0.146637;318.569;-0.00018515;5;3799;0.00382609;-0.0038439;100 µA;
0.131989;319.057;-0.000187408;5;3805;0.00382609;-0.0038439;100 µA;
0.11734;319.546;-0.000189392;5;3811;0.00382609;-0.0038439;100 µA;
0.102692;320.034;-0.00019101;5;3817;0.00382609;-0.0038439;100 µA;
0.0880432;320.522;-0.000192383;5;3823;0.00382609;-0.0038439;100 µA;
0.0733948;321.011;-0.000193451;5;3829;0.00382609;-0.0038439;100 µA;
0.0587463;321.499;-0.000194336;5;3835;0.00382609;-0.0038439;100 µA;
0.0440979;321.987;-0.000195068;5;3841;0.00382609;-0.0038439;100 µA;
0.0294495;322.475;-0.000195618;5;3847;0.00382609;-0.0038439;100 µA;
0.014801;322.964;-0.000196075;5;3853;0.00382609;-0.0038439;100 µA;
0.000152588;323.452;-0.000196442;5;3859;0.00382609;-0.0038439;100 µA;
-0.0144958;323.94;-0.000196747;5;3865;0.00382609;-0.0038439;100 µA;
-0.0291443;324.429;-0.000197083;5;3871;0.00382609;-0.0038439;100 µA;
-0.0437927;324.917;-0.000197388;5;3877;0.00382609;-0.0038439;100 µA;
-0.0584412;325.405;-0.000197784;5;3883;0.00382609;-0.0038439;100 µA;
-0.0730896;325.893;-0.000198273;5;3889;0.00382609;-0.0038439;100 µA;
-0.087738;326.382;-0.000198975;5;3895;0.00382609;-0.0038439;100 µA;
-0.0975037;326.87;-0.00018927;5;3901;0.00382609;-0.0038439;100 µA;
-0.0828552;327.358;-0.000147705;5;3907;0.00382609;-0.0038439;100 µA;
-0.0682068;327.846;-0.000118103;5;3913;0.00382609;-0.0038439;100 µA;
-0.0535583;328.335;-9.3811e-05;5;3919;0.00382609;-0.0038439;100 µA;
-0.0389099;328.823;-7.30896e-05;5;3925;0.00382609;-0.0038439;100 µA;
-0.0242615;329.311;-5.49622e-05;5;3931;0.00382609;-0.0038439;100 µA;
-0.00961304;329.8;-3.89557e-05;5;3937;0.00382609;-0.0038439;100 µA;
0.0050354;330.288;-2.45117e-05;5;3943;0.00382609;-0.0038439;10 µA;
0.0196838;330.776;-1.15875e-05;5;3949;0.00382609;-0.0038439;10 µA;
0.0343323;331.264;1.3092e-07;5;3955;0.00382609;-0.0038439;10 µA;
0.0489807;331.753;1.07849e-05;5;3961;0.00382609;-0.0038439;10 µA;
0.0636292;332.241;2.05841e-05;5;3967;0.00382609;-0.0038439;10 µA;
0.0782776;332.729;2.95837e-05;5;3973;0.00382609;-0.0038439;10 µA;
0.092926;333.218;3.80188e-05;5;3979;0.00382609;-0.0038439;10 µA;
0.107574;333.706;4.58649e-05;5;3985;0.00382609;-0.0038439;10 µA;
0.122223;334.194;5.32654e-05;5;3991;0.00382609;-0.0038439;10 µA;
0.136871;334.682;6.03241e-05;5;3997;0.00382609;-0.0038439;10 µA;
0.15152;335.171;6.6925e-05;5;4003;0.00382609;-0.0038439;100 µA;
0.166168;335.659;7.33032e-05;5;4009;0.00382609;-0.0038439;100 µA;
0.180817;336.147;7.94678e-05;5;4015;0.00382609;-0.0038439;100 µA;
0.195465;336.636;8.54492e-05;5;4021;0.00382609;-0.0038439;100 µA;
0.210114;337.124;9.12476e-05;5;4027;0.00382609;-0.0038439;100 µA;
0.224762;337.612;9.69849e-05;5;4033;0.00382609;-0.0038439;100 µA;
0.23941;338.1;0.000102509;5;4039;0.00382609;-0.0038439;100 µA;
0.254059;338.589;0.00010791;5;4045;0.00382609;-0.0038439;100 µA;
0.268707;339.077;0.000113068;5;4051;0.00382609;-0.0038439;100 µA;
0.283356;339.565;0.000118164;5;4057;0.00382609;-0.0038439;100 µA;
0.298004;340.053;0.000123169;5;4063;0.00382609;-0.0038439;100 µA;
0.300446;340.135;0.000123993;5;4064;0.00382609;-0.0038439;100 µA;