File: 40mV-Mxene3_2.txt
Potential applied (V);Time (s);WE(1).Current (A);Scan;Index;Q+;Q-;Current range;Overload
-0.0975037;9.19124;-0.000245453;1;1;0.00413117;-0.0035392;10 mA;
-0.0828552;9.55745;-0.000162231;1;7;0.00413117;-0.0035392;1 mA;
-0.0682068;9.92366;-0.000121704;1;13;0.00413117;-0.0035392;100 µA;
-0.0535583;10.2899;-9.2865e-05;1;19;0.00413117;-0.0035392;100 µA;
-0.0389099;10.6561;-6.97937e-05;1;25;0.00413117;-0.0035392;100 µA;
-0.0242615;11.0223;-5.02319e-05;1;31;0.00413117;-0.0035392;100 µA;
-0.00961304;11.3885;-3.30933e-05;1;37;0.00413117;-0.0035392;10 µA;
0.0050354;11.7547;-1.78802e-05;1;43;0.00413117;-0.0035392;10 µA;
0.0196838;12.1209;-4.22394e-06;1;49;0.00413117;-0.0035392;10 µA;
0.0343323;12.4871;8.2428e-06;1;55;0.00413117;-0.0035392;10 µA;
0.0489807;12.8533;1.96838e-05;1;61;0.00413117;-0.0035392;10 µA;
0.0636292;13.2196;3.02765e-05;1;67;0.00413117;-0.0035392;10 µA;
0.0782776;13.5858;4.00543e-05;1;73;0.00413117;-0.0035392;10 µA;
0.092926;13.952;4.92676e-05;1;79;0.00413117;-0.0035392;10 µA;
0.107574;14.3182;5.79407e-05;1;85;0.00413117;-0.0035392;10 µA;
0.122223;14.6844;6.5979e-05;1;91;0.00413117;-0.0035392;100 µA;
0.136871;15.0506;7.37915e-05;1;97;0.00413117;-0.0035392;100 µA;
0.15152;15.4168;8.12378e-05;1;103;0.00413117;-0.0035392;100 µA;
0.166168;15.783;8.84399e-05;1;109;0.00413117;-0.0035392;100 µA;
0.180817;16.1492;9.53979e-05;1;115;0.00413117;-0.0035392;100 µA;
0.195465;16.5154;0.000102081;1;121;0.00413117;-0.0035392;100 µA;
0.210114;16.8817;0.000108612;1;127;0.00413117;-0.0035392;100 µA;
0.224762;17.2479;0.000114929;1;133;0.00413117;-0.0035392;100 µA;
0.23941;17.6141;0.000121094;1;139;0.00413117;-0.0035392;100 µA;
0.254059;17.9803;0.000127075;1;145;0.00413117;-0.0035392;100 µA;
0.268707;18.3465;0.000132904;1;151;0.00413117;-0.0035392;100 µA;
0.283356;18.7127;0.00013858;1;157;0.00413117;-0.0035392;100 µA;
0.298004;19.0789;0.000144196;1;163;0.00413117;-0.0035392;100 µA;
0.312653;19.4451;0.000149811;1;169;0.00413117;-0.0035392;100 µA;
0.327301;19.8113;0.000155334;1;175;0.00413117;-0.0035392;100 µA;
0.341949;20.1775;0.000160919;1;181;0.00413117;-0.0035392;100 µA;
0.356598;20.5438;0.000166504;1;187;0.00413117;-0.0035392;100 µA;
0.371246;20.91;0.000172211;1;193;0.00413117;-0.0035392;100 µA;
0.385895;21.2762;0.000177856;1;199;0.00413117;-0.0035392;100 µA;
0.400543;21.6424;0.000183472;1;205;0.00413117;-0.0035392;100 µA;
0.415192;22.0086;0.000188904;1;211;0.00413117;-0.0035392;100 µA;
0.42984;22.3748;0.000194;1;217;0.00413117;-0.0035392;100 µA;
0.444489;22.741;0.000198792;1;223;0.00413117;-0.0035392;100 µA;
0.459137;23.1072;0.000203094;1;229;0.00413117;-0.0035392;100 µA;
0.473785;23.4734;0.000206848;1;235;0.00413117;-0.0035392;100 µA;
0.488434;23.8396;0.000210022;1;241;0.00413117;-0.0035392;100 µA;
0.503082;24.2059;0.000212677;1;247;0.00413117;-0.0035392;100 µA;
0.517731;24.5721;0.000214874;1;253;0.00413117;-0.0035392;100 µA;
0.532379;24.9383;0.000216583;1;259;0.00413117;-0.0035392;100 µA;
0.547028;25.3045;0.000217896;1;265;0.00413117;-0.0035392;100 µA;
0.561676;25.6707;0.000218933;1;271;0.00413117;-0.0035392;100 µA;
0.576324;26.0369;0.000219696;1;277;0.00413117;-0.0035392;100 µA;
0.590973;26.4031;0.000220306;1;283;0.00413117;-0.0035392;100 µA;
0.605621;26.7693;0.000220673;1;289;0.00413117;-0.0035392;100 µA;
0.62027;27.1355;0.000220825;1;295;0.00413117;-0.0035392;100 µA;
0.634918;27.5017;0.000220917;1;301;0.00413117;-0.0035392;100 µA;
0.649567;27.868;0.000220764;1;307;0.00413117;-0.0035392;100 µA;
0.664215;28.2342;0.00022049;1;313;0.00413117;-0.0035392;100 µA;
0.678864;28.6004;0.000220032;1;319;0.00413117;-0.0035392;100 µA;
0.693512;28.9666;0.000219543;1;325;0.00413117;-0.0035392;100 µA;
0.70816;29.3328;0.000218903;1;331;0.00413117;-0.0035392;100 µA;
0.722809;29.699;0.000218201;1;337;0.00413117;-0.0035392;100 µA;
0.737457;30.0652;0.000217407;1;343;0.00413117;-0.0035392;100 µA;
0.752106;30.4314;0.000216522;1;349;0.00413117;-0.0035392;100 µA;
0.766754;30.7976;0.000215698;1;355;0.00413117;-0.0035392;100 µA;
0.781403;31.1638;0.000214783;1;361;0.00413117;-0.0035392;100 µA;
0.796051;31.5301;0.000213898;1;367;0.00413117;-0.0035392;100 µA;
0.810699;31.8963;0.000213104;1;373;0.00413117;-0.0035392;100 µA;
0.825348;32.2625;0.000212372;1;379;0.00413117;-0.0035392;100 µA;
0.839996;32.6287;0.000211945;1;385;0.00413117;-0.0035392;100 µA;
0.849762;32.9949;0.000201355;1;391;0.00413117;-0.0035392;100 µA;
0.835114;33.3611;0.000160583;1;397;0.00413117;-0.0035392;100 µA;
0.820465;33.7273;0.000131561;1;403;0.00413117;-0.0035392;100 µA;
0.805817;34.0935;0.000107971;1;409;0.00413117;-0.0035392;100 µA;
0.791168;34.4597;8.78296e-05;1;415;0.00413117;-0.0035392;100 µA;
0.77652;34.8259;7.03735e-05;1;421;0.00413117;-0.0035392;100 µA;
0.761871;35.1922;5.49011e-05;1;427;0.00413117;-0.0035392;100 µA;
0.747223;35.5584;4.11316e-05;1;433;0.00413117;-0.0035392;100 µA;
0.732574;35.9246;2.88513e-05;1;439;0.00413117;-0.0035392;10 µA;
0.717926;36.2908;1.76239e-05;1;445;0.00413117;-0.0035392;10 µA;
0.703278;36.657;7.40662e-06;1;451;0.00413117;-0.0035392;10 µA;
0.688629;37.0232;-1.91376e-06;1;457;0.00413117;-0.0035392;10 µA;
0.673981;37.3894;-1.04889e-05;1;463;0.00413117;-0.0035392;10 µA;
0.659332;37.7556;-1.84387e-05;1;469;0.00413117;-0.0035392;10 µA;
0.644684;38.1218;-2.57843e-05;1;475;0.00413117;-0.0035392;10 µA;
0.630035;38.488;-3.26416e-05;1;481;0.00413117;-0.0035392;10 µA;
0.615387;38.8543;-3.90991e-05;1;487;0.00413117;-0.0035392;10 µA;
0.600739;39.2205;-4.51477e-05;1;493;0.00413117;-0.0035392;10 µA;
0.58609;39.5867;-5.08881e-05;1;499;0.00413117;-0.0035392;10 µA;
0.571442;39.9529;-5.64087e-05;1;505;0.00413117;-0.0035392;10 µA;
0.556793;40.3191;-6.17065e-05;1;511;0.00413117;-0.0035392;100 µA;
0.542145;40.6853;-6.6803e-05;1;517;0.00413117;-0.0035392;100 µA;
0.527496;41.0515;-7.18384e-05;1;523;0.00413117;-0.0035392;100 µA;
0.512848;41.4177;-7.67822e-05;1;529;0.00413117;-0.0035392;100 µA;
0.498199;41.7839;-8.16345e-05;1;535;0.00413117;-0.0035392;100 µA;
0.483551;42.1501;-8.65173e-05;1;541;0.00413117;-0.0035392;100 µA;
0.468903;42.5164;-9.14307e-05;1;547;0.00413117;-0.0035392;100 µA;
0.454254;42.8826;-9.6344e-05;1;553;0.00413117;-0.0035392;100 µA;
0.439606;43.2488;-0.00010141;1;559;0.00413117;-0.0035392;100 µA;
0.424957;43.615;-0.000106567;1;565;0.00413117;-0.0035392;100 µA;
0.410309;43.9812;-0.000111908;1;571;0.00413117;-0.0035392;100 µA;
0.39566;44.3474;-0.000117462;1;577;0.00413117;-0.0035392;100 µA;
0.381012;44.7136;-0.000123199;1;583;0.00413117;-0.0035392;100 µA;
0.366364;45.0798;-0.00012915;1;589;0.00413117;-0.0035392;100 µA;
0.351715;45.446;-0.000135193;1;595;0.00413117;-0.0035392;100 µA;
0.337067;45.8122;-0.000141388;1;601;0.00413117;-0.0035392;100 µA;
0.322418;46.1785;-0.000147644;1;607;0.00413117;-0.0035392;100 µA;
0.30777;46.5447;-0.000153961;1;613;0.00413117;-0.0035392;100 µA;
0.293121;46.9109;-0.000160156;1;619;0.00413117;-0.0035392;100 µA;
0.278473;47.2771;-0.00016626;1;625;0.00413117;-0.0035392;100 µA;
0.263824;47.6433;-0.000172211;1;631;0.00413117;-0.0035392;100 µA;
0.249176;48.0095;-0.000177887;1;637;0.00413117;-0.0035392;100 µA;
0.234528;48.3757;-0.000183289;1;643;0.00413117;-0.0035392;100 µA;
0.219879;48.7419;-0.000188354;1;649;0.00413117;-0.0035392;100 µA;
0.205231;49.1081;-0.000193237;1;655;0.00413117;-0.0035392;100 µA;
0.190582;49.4743;-0.000197662;1;661;0.00413117;-0.0035392;100 µA;
0.175934;49.8406;-0.000201935;1;667;0.00413117;-0.0035392;100 µA;
0.161285;50.2068;-0.00020578;1;673;0.00413117;-0.0035392;100 µA;
0.146637;50.573;-0.000209412;1;679;0.00413117;-0.0035392;100 µA;
0.131989;50.9392;-0.000212708;1;685;0.00413117;-0.0035392;100 µA;
0.11734;51.3054;-0.000215729;1;691;0.00413117;-0.0035392;100 µA;
0.102692;51.6716;-0.000218445;1;697;0.00413117;-0.0035392;100 µA;
0.0880432;52.0378;-0.000220947;1;703;0.00413117;-0.0035392;100 µA;
0.0733948;52.404;-0.000223114;1;709;0.00413117;-0.0035392;100 µA;
0.0587463;52.7702;-0.000225098;1;715;0.00413117;-0.0035392;100 µA;
0.0440979;53.1364;-0.000226776;1;721;0.00413117;-0.0035392;100 µA;
0.0294495;53.5027;-0.000228424;1;727;0.00413117;-0.0035392;100 µA;
0.014801;53.8689;-0.000229889;1;733;0.00413117;-0.0035392;100 µA;
0.000152588;54.2351;-0.000231201;1;739;0.00413117;-0.0035392;100 µA;
-0.0144958;54.6013;-0.000232513;1;745;0.00413117;-0.0035392;100 µA;
-0.0291443;54.9675;-0.000233704;1;751;0.00413117;-0.0035392;100 µA;
-0.0437927;55.3337;-0.000234833;1;757;0.00413117;-0.0035392;100 µA;
-0.0584412;55.6999;-0.000235992;1;763;0.00413117;-0.0035392;100 µA;
-0.0730896;56.0661;-0.000237213;1;769;0.00413117;-0.0035392;100 µA;
-0.087738;56.4323;-0.000238464;1;775;0.00413117;-0.0035392;100 µA;
-0.0975037;56.7985;-0.000229126;1;781;0.00413117;-0.0035392;100 µA;
-0.0828552;57.1648;-0.000186798;1;787;0.00413117;-0.0035392;100 µA;
-0.0682068;57.531;-0.000155975;1;793;0.00413117;-0.0035392;100 µA;
-0.0535583;57.8972;-0.000130341;1;799;0.00413117;-0.0035392;100 µA;
-0.0389099;58.2634;-0.000108002;1;805;0.00413117;-0.0035392;100 µA;
-0.0242615;58.6296;-8.81042e-05;1;811;0.00413117;-0.0035392;100 µA;
-0.00961304;58.9958;-7.01904e-05;1;817;0.00413117;-0.0035392;100 µA;
0.0050354;59.362;-5.3833e-05;1;823;0.00413117;-0.0035392;100 µA;
0.0196838;59.7282;-3.88763e-05;1;829;0.00413117;-0.0035392;100 µA;
0.0343323;60.0944;-2.49847e-05;1;835;0.00413117;-0.0035392;10 µA;
0.0489807;60.4606;-1.21399e-05;1;841;0.00413117;-0.0035392;10 µA;
0.0636292;60.8269;-1.62964e-07;1;847;0.00413117;-0.0035392;10 µA;
0.0782776;61.1931;1.1026e-05;1;853;0.00413117;-0.0035392;10 µA;
0.092926;61.5593;2.16248e-05;1;859;0.00413117;-0.0035392;10 µA;
0.107574;61.9255;3.16254e-05;1;865;0.00413117;-0.0035392;10 µA;
0.122223;62.2917;4.11194e-05;1;871;0.00413117;-0.0035392;10 µA;
0.136871;62.6579;5.02319e-05;1;877;0.00413117;-0.0035392;10 µA;
0.15152;63.0241;5.89172e-05;1;883;0.00413117;-0.0035392;10 µA;
0.166168;63.3903;6.71082e-05;1;889;0.00413117;-0.0035392;100 µA;
0.180817;63.7565;7.51343e-05;1;895;0.00413117;-0.0035392;100 µA;
0.195465;64.1227;8.28857e-05;1;901;0.00413117;-0.0035392;100 µA;
0.210114;64.489;9.04236e-05;1;907;0.00413117;-0.0035392;100 µA;
0.224762;64.8552;9.77783e-05;1;913;0.00413117;-0.0035392;100 µA;
0.23941;65.2214;0.000104858;1;919;0.00413117;-0.0035392;100 µA;
0.254059;65.5876;0.000111786;1;925;0.00413117;-0.0035392;100 µA;
0.268707;65.9538;0.000118469;1;931;0.00413117;-0.0035392;100 µA;
0.283356;66.32;0.000124969;1;937;0.00413117;-0.0035392;100 µA;
0.298004;66.6862;0.000131317;1;943;0.00413117;-0.0035392;100 µA;
0.312653;67.0524;0.000137573;2;949;0.00338789;-0.00337047;100 µA;
0.327301;67.4186;0.000143707;2;955;0.00338789;-0.00337047;100 µA;
0.341949;67.7848;0.000149872;2;961;0.00338789;-0.00337047;100 µA;
0.356598;68.1511;0.000155884;2;967;0.00338789;-0.00337047;100 µA;
0.371246;68.5173;0.000161926;2;973;0.00338789;-0.00337047;100 µA;
0.385895;68.8835;0.000167908;2;979;0.00338789;-0.00337047;100 µA;
0.400543;69.2497;0.000173767;2;985;0.00338789;-0.00337047;100 µA;
0.415192;69.6159;0.000179352;2;991;0.00338789;-0.00337047;100 µA;
0.42984;69.9821;0.00018457;2;997;0.00338789;-0.00337047;100 µA;
0.444489;70.3483;0.000189423;2;1003;0.00338789;-0.00337047;100 µA;
0.459137;70.7145;0.000193787;2;1009;0.00338789;-0.00337047;100 µA;
0.473785;71.0807;0.00019751;2;1015;0.00338789;-0.00337047;100 µA;
0.488434;71.4469;0.000200592;2;1021;0.00338789;-0.00337047;100 µA;
0.503082;71.8132;0.000203217;2;1027;0.00338789;-0.00337047;100 µA;
0.517731;72.1794;0.000205261;2;1033;0.00338789;-0.00337047;100 µA;
0.532379;72.5456;0.000206787;2;1039;0.00338789;-0.00337047;100 µA;
0.547028;72.9118;0.000208008;2;1045;0.00338789;-0.00337047;100 µA;
0.561676;73.278;0.000208923;2;1051;0.00338789;-0.00337047;100 µA;
0.576324;73.6442;0.000209473;2;1057;0.00338789;-0.00337047;100 µA;
0.590973;74.0104;0.000209869;2;1063;0.00338789;-0.00337047;100 µA;
0.605621;74.3766;0.000209961;2;1069;0.00338789;-0.00337047;100 µA;
0.62027;74.7428;0.000211273;2;1075;0.00338789;-0.00337047;100 µA;
0.634918;75.109;0.000211823;2;1081;0.00338789;-0.00337047;100 µA;
0.649567;75.4753;0.000211426;2;1087;0.00338789;-0.00337047;100 µA;
0.664215;75.8415;0.000210846;2;1093;0.00338789;-0.00337047;100 µA;
0.678864;76.2077;0.000210114;2;1099;0.00338789;-0.00337047;100 µA;
0.693512;76.5739;0.00020929;2;1105;0.00338789;-0.00337047;100 µA;
0.70816;76.9401;0.000208344;2;1111;0.00338789;-0.00337047;100 µA;
0.722809;77.3063;0.000207275;2;1117;0.00338789;-0.00337047;100 µA;
0.737457;77.6725;0.000206238;2;1123;0.00338789;-0.00337047;100 µA;
0.752106;78.0387;0.000205078;2;1129;0.00338789;-0.00337047;100 µA;
0.766754;78.4049;0.00020401;2;1135;0.00338789;-0.00337047;100 µA;
0.781403;78.7711;0.00020285;2;1141;0.00338789;-0.00337047;100 µA;
0.796051;79.1374;0.000201843;2;1147;0.00338789;-0.00337047;100 µA;
0.810699;79.5036;0.000200897;2;1153;0.00338789;-0.00337047;100 µA;
0.825348;79.8698;0.000200226;2;1159;0.00338789;-0.00337047;100 µA;
0.839996;80.236;0.000199738;2;1165;0.00338789;-0.00337047;100 µA;
0.849762;80.6022;0.00018924;2;1171;0.00338789;-0.00337047;100 µA;
0.835114;80.9684;0.000148926;2;1177;0.00338789;-0.00337047;100 µA;
0.820465;81.3346;0.0001203;2;1183;0.00338789;-0.00337047;100 µA;
0.805817;81.7008;9.91211e-05;2;1189;0.00338789;-0.00337047;100 µA;
0.791168;82.067;7.87964e-05;2;1195;0.00338789;-0.00337047;100 µA;
0.77652;82.4332;6.13098e-05;2;1201;0.00338789;-0.00337047;100 µA;
0.761871;82.7995;4.59717e-05;2;1207;0.00338789;-0.00337047;100 µA;
0.747223;83.1657;3.24493e-05;2;1213;0.00338789;-0.00337047;10 µA;
0.732574;83.5319;2.02637e-05;2;1219;0.00338789;-0.00337047;10 µA;
0.717926;83.8981;9.29565e-06;2;1225;0.00338789;-0.00337047;10 µA;
0.703278;84.2643;-6.43311e-07;2;1231;0.00338789;-0.00337047;10 µA;
0.688629;84.6305;-9.68323e-06;2;1237;0.00338789;-0.00337047;10 µA;
0.673981;84.9967;-1.79565e-05;2;1243;0.00338789;-0.00337047;10 µA;
0.659332;85.3629;-2.55524e-05;2;1249;0.00338789;-0.00337047;10 µA;
0.644684;85.7291;-3.25958e-05;2;1255;0.00338789;-0.00337047;10 µA;
0.630035;86.0953;-3.91205e-05;2;1261;0.00338789;-0.00337047;10 µA;
0.615387;86.4616;-4.52545e-05;2;1267;0.00338789;-0.00337047;10 µA;
0.600739;86.8278;-5.09674e-05;2;1273;0.00338789;-0.00337047;10 µA;
0.58609;87.194;-5.64178e-05;2;1279;0.00338789;-0.00337047;10 µA;
0.571442;87.5602;-6.16455e-05;2;1285;0.00338789;-0.00337047;100 µA;
0.556793;87.9264;-6.66504e-05;2;1291;0.00338789;-0.00337047;100 µA;
0.542145;88.2926;-7.15027e-05;2;1297;0.00338789;-0.00337047;100 µA;
0.527496;88.6588;-7.62634e-05;2;1303;0.00338789;-0.00337047;100 µA;
0.512848;89.025;-8.09631e-05;2;1309;0.00338789;-0.00337047;100 µA;
0.498199;89.3912;-8.55713e-05;2;1315;0.00338789;-0.00337047;100 µA;
0.483551;89.7574;-9.03015e-05;2;1321;0.00338789;-0.00337047;100 µA;
0.468903;90.1237;-9.50012e-05;2;1327;0.00338789;-0.00337047;100 µA;
0.454254;90.4899;-9.97925e-05;2;1333;0.00338789;-0.00337047;100 µA;
0.439606;90.8561;-0.000104736;2;1339;0.00338789;-0.00337047;100 µA;
0.424957;91.2223;-0.000109711;2;1345;0.00338789;-0.00337047;100 µA;
0.410309;91.5885;-0.00011499;2;1351;0.00338789;-0.00337047;100 µA;
0.39566;91.9547;-0.000120422;2;1357;0.00338789;-0.00337047;100 µA;
0.381012;92.3209;-0.000126068;2;1363;0.00338789;-0.00337047;100 µA;
0.366364;92.6871;-0.000131897;2;1369;0.00338789;-0.00337047;100 µA;
0.351715;93.0533;-0.00013797;2;1375;0.00338789;-0.00337047;100 µA;
0.337067;93.4195;-0.000144104;2;1381;0.00338789;-0.00337047;100 µA;
0.322418;93.7858;-0.000150391;2;1387;0.00338789;-0.00337047;100 µA;
0.30777;94.152;-0.000156647;2;1393;0.00338789;-0.00337047;100 µA;
0.293121;94.5182;-0.000162842;2;1399;0.00338789;-0.00337047;100 µA;
0.278473;94.8844;-0.000169037;2;1405;0.00338789;-0.00337047;100 µA;
0.263824;95.2506;-0.000174896;2;1411;0.00338789;-0.00337047;100 µA;
0.249176;95.6168;-0.000180695;2;1417;0.00338789;-0.00337047;100 µA;
0.234528;95.983;-0.000186127;2;1423;0.00338789;-0.00337047;100 µA;
0.219879;96.3492;-0.000191254;2;1429;0.00338789;-0.00337047;100 µA;
0.205231;96.7154;-0.000196136;2;1435;0.00338789;-0.00337047;100 µA;
0.190582;97.0816;-0.000200684;2;1441;0.00338789;-0.00337047;100 µA;
0.175934;97.4479;-0.000204987;2;1447;0.00338789;-0.00337047;100 µA;
0.161285;97.8141;-0.000208893;2;1453;0.00338789;-0.00337047;100 µA;
0.146637;98.1803;-0.000212555;2;1459;0.00338789;-0.00337047;100 µA;
0.131989;98.5465;-0.000215973;2;1465;0.00338789;-0.00337047;100 µA;
0.11734;98.9127;-0.000219025;2;1471;0.00338789;-0.00337047;100 µA;
0.102692;99.2789;-0.000221741;2;1477;0.00338789;-0.00337047;100 µA;
0.0880432;99.6451;-0.000224213;2;1483;0.00338789;-0.00337047;100 µA;
0.0733948;100.011;-0.00022644;2;1489;0.00338789;-0.00337047;100 µA;
0.0587463;100.378;-0.000228424;2;1495;0.00338789;-0.00337047;100 µA;
0.0440979;100.744;-0.000230164;2;1501;0.00338789;-0.00337047;100 µA;
0.0294495;101.11;-0.00023172;2;1507;0.00338789;-0.00337047;100 µA;
0.014801;101.476;-0.000233185;2;1513;0.00338789;-0.00337047;100 µA;
0.000152588;101.842;-0.000234772;2;1519;0.00338789;-0.00337047;100 µA;
-0.0144958;102.209;-0.000235992;2;1525;0.00338789;-0.00337047;100 µA;
-0.0291443;102.575;-0.000237122;2;1531;0.00338789;-0.00337047;100 µA;
-0.0437927;102.941;-0.000238251;2;1537;0.00338789;-0.00337047;100 µA;
-0.0584412;103.307;-0.000239319;2;1543;0.00338789;-0.00337047;100 µA;
-0.0730896;103.673;-0.000240509;2;1549;0.00338789;-0.00337047;100 µA;
-0.087738;104.04;-0.000241669;2;1555;0.00338789;-0.00337047;100 µA;
-0.0975037;104.406;-0.000232208;2;1561;0.00338789;-0.00337047;100 µA;
-0.0828552;104.772;-0.000189484;2;1567;0.00338789;-0.00337047;100 µA;
-0.0682068;105.138;-0.000158264;2;1573;0.00338789;-0.00337047;100 µA;
-0.0535583;105.504;-0.000132233;2;1579;0.00338789;-0.00337047;100 µA;
-0.0389099;105.871;-0.000109528;2;1585;0.00338789;-0.00337047;100 µA;
-0.0242615;106.237;-8.93555e-05;2;1591;0.00338789;-0.00337047;100 µA;
-0.00961304;106.603;-7.10754e-05;2;1597;0.00338789;-0.00337047;100 µA;
0.0050354;106.969;-5.44128e-05;2;1603;0.00338789;-0.00337047;100 µA;
0.0196838;107.336;-3.92303e-05;2;1609;0.00338789;-0.00337047;100 µA;
0.0343323;107.702;-2.50336e-05;2;1615;0.00338789;-0.00337047;10 µA;
0.0489807;108.068;-1.19385e-05;2;1621;0.00338789;-0.00337047;10 µA;
0.0636292;108.434;2.99377e-07;2;1627;0.00338789;-0.00337047;10 µA;
0.0782776;108.8;1.16943e-05;2;1633;0.00338789;-0.00337047;10 µA;
0.092926;109.167;2.24854e-05;2;1639;0.00338789;-0.00337047;10 µA;
0.107574;109.533;3.26904e-05;2;1645;0.00338789;-0.00337047;10 µA;
0.122223;109.899;4.23248e-05;2;1651;0.00338789;-0.00337047;10 µA;
0.136871;110.265;5.15411e-05;2;1657;0.00338789;-0.00337047;10 µA;
0.15152;110.631;6.03668e-05;2;1663;0.00338789;-0.00337047;10 µA;
0.166168;110.998;6.86646e-05;2;1669;0.00338789;-0.00337047;100 µA;
0.180817;111.364;7.68127e-05;2;1675;0.00338789;-0.00337047;100 µA;
0.195465;111.73;8.46252e-05;2;1681;0.00338789;-0.00337047;100 µA;
0.210114;112.096;9.22852e-05;2;1687;0.00338789;-0.00337047;100 µA;
0.224762;112.462;9.97009e-05;2;1693;0.00338789;-0.00337047;100 µA;
0.23941;112.829;0.000106842;2;1699;0.00338789;-0.00337047;100 µA;
0.254059;113.195;0.000113831;2;1705;0.00338789;-0.00337047;100 µA;
0.268707;113.561;0.000120605;2;1711;0.00338789;-0.00337047;100 µA;
0.283356;113.927;0.000127197;2;1717;0.00338789;-0.00337047;100 µA;
0.298004;114.294;0.000133636;2;1723;0.00338789;-0.00337047;100 µA;
0.312653;114.66;0.000139923;3;1729;0.00339295;-0.00338981;100 µA;
0.327301;115.026;0.000146088;3;1735;0.00339295;-0.00338981;100 µA;
0.341949;115.392;0.000152252;3;1741;0.00339295;-0.00338981;100 µA;
0.356598;115.758;0.000158325;3;1747;0.00339295;-0.00338981;100 µA;
0.371246;116.125;0.000164398;3;1753;0.00339295;-0.00338981;100 µA;
0.385895;116.491;0.000170441;3;1759;0.00339295;-0.00338981;100 µA;
0.400543;116.857;0.000176331;3;1765;0.00339295;-0.00338981;100 µA;
0.415192;117.223;0.000181976;3;1771;0.00339295;-0.00338981;100 µA;
0.42984;117.589;0.000187256;3;1777;0.00339295;-0.00338981;100 µA;
0.444489;117.956;0.000192139;3;1783;0.00339295;-0.00338981;100 µA;
0.459137;118.322;0.000196503;3;1789;0.00339295;-0.00338981;100 µA;
0.473785;118.688;0.000200256;3;1795;0.00339295;-0.00338981;100 µA;
0.488434;119.054;0.000203369;3;1801;0.00339295;-0.00338981;100 µA;
0.503082;119.42;0.000205963;3;1807;0.00339295;-0.00338981;100 µA;
0.517731;119.787;0.000207977;3;1813;0.00339295;-0.00338981;100 µA;
0.532379;120.153;0.000209503;3;1819;0.00339295;-0.00338981;100 µA;
0.547028;120.519;0.000210602;3;1825;0.00339295;-0.00338981;100 µA;
0.561676;120.885;0.000211365;3;1831;0.00339295;-0.00338981;100 µA;
0.576324;121.252;0.000211884;3;1837;0.00339295;-0.00338981;100 µA;
0.590973;121.618;0.000212097;3;1843;0.00339295;-0.00338981;100 µA;
0.605621;121.984;0.000212097;3;1849;0.00339295;-0.00338981;100 µA;
0.62027;122.35;0.000211853;3;1855;0.00339295;-0.00338981;100 µA;
0.634918;122.716;0.000211487;3;1861;0.00339295;-0.00338981;100 µA;
0.649567;123.083;0.000210876;3;1867;0.00339295;-0.00338981;100 µA;
0.664215;123.449;0.000210175;3;1873;0.00339295;-0.00338981;100 µA;
0.678864;123.815;0.000209381;3;1879;0.00339295;-0.00338981;100 µA;
0.693512;124.181;0.000208405;3;1885;0.00339295;-0.00338981;100 µA;
0.70816;124.547;0.000207367;3;1891;0.00339295;-0.00338981;100 µA;
0.722809;124.914;0.000206268;3;1897;0.00339295;-0.00338981;100 µA;
0.737457;125.28;0.000205139;3;1903;0.00339295;-0.00338981;100 µA;
0.752106;125.646;0.00020401;3;1909;0.00339295;-0.00338981;100 µA;
0.766754;126.012;0.00020285;3;1915;0.00339295;-0.00338981;100 µA;
0.781403;126.378;0.00020166;3;1921;0.00339295;-0.00338981;100 µA;
0.796051;126.745;0.000200623;3;1927;0.00339295;-0.00338981;100 µA;
0.810699;127.111;0.000199677;3;1933;0.00339295;-0.00338981;100 µA;
0.825348;127.477;0.000198883;3;1939;0.00339295;-0.00338981;100 µA;
0.839996;127.843;0.000198334;3;1945;0.00339295;-0.00338981;100 µA;
0.849762;128.209;0.000187775;3;1951;0.00339295;-0.00338981;100 µA;
0.835114;128.576;0.000147003;3;1957;0.00339295;-0.00338981;100 µA;
0.820465;128.942;0.000118164;3;1963;0.00339295;-0.00338981;100 µA;
0.805817;129.308;9.47876e-05;3;1969;0.00339295;-0.00338981;100 µA;
0.791168;129.674;7.49817e-05;3;1975;0.00339295;-0.00338981;100 µA;
0.77652;130.041;5.78613e-05;3;1981;0.00339295;-0.00338981;100 µA;
0.761871;130.407;4.27673e-05;3;1987;0.00339295;-0.00338981;100 µA;
0.747223;130.773;2.94586e-05;3;1993;0.00339295;-0.00338981;10 µA;
0.732574;131.139;1.74988e-05;3;1999;0.00339295;-0.00338981;10 µA;
0.717926;131.505;6.71082e-06;3;2005;0.00339295;-0.00338981;10 µA;
0.703278;131.872;-3.05908e-06;3;2011;0.00339295;-0.00338981;10 µA;
0.688629;132.238;-1.19141e-05;3;2017;0.00339295;-0.00338981;10 µA;
0.673981;132.604;-2.00378e-05;3;2023;0.00339295;-0.00338981;10 µA;
0.659332;132.97;-2.75146e-05;3;2029;0.00339295;-0.00338981;10 µA;
0.644684;133.336;-3.43994e-05;3;2035;0.00339295;-0.00338981;10 µA;
0.630035;133.703;-4.08051e-05;3;2041;0.00339295;-0.00338981;10 µA;
0.615387;134.069;-4.67987e-05;3;2047;0.00339295;-0.00338981;10 µA;
0.600739;134.435;-5.24078e-05;3;2053;0.00339295;-0.00338981;10 µA;
0.58609;134.801;-5.77606e-05;3;2059;0.00339295;-0.00338981;10 µA;
0.571442;135.167;-6.28967e-05;3;2065;0.00339295;-0.00338981;100 µA;
0.556793;135.534;-6.78406e-05;3;2071;0.00339295;-0.00338981;100 µA;
0.542145;135.9;-7.25708e-05;3;2077;0.00339295;-0.00338981;100 µA;
0.527496;136.266;-7.72705e-05;3;2083;0.00339295;-0.00338981;100 µA;
0.512848;136.632;-8.18787e-05;3;2089;0.00339295;-0.00338981;100 µA;
0.498199;136.999;-8.64868e-05;3;2095;0.00339295;-0.00338981;100 µA;
0.483551;137.365;-9.1095e-05;3;2101;0.00339295;-0.00338981;100 µA;
0.468903;137.731;-9.58557e-05;3;2107;0.00339295;-0.00338981;100 µA;
0.454254;138.097;-0.000100616;3;2113;0.00339295;-0.00338981;100 µA;
0.439606;138.463;-0.00010553;3;2119;0.00339295;-0.00338981;100 µA;
0.424957;138.83;-0.000110535;3;2125;0.00339295;-0.00338981;100 µA;
0.410309;139.196;-0.000115723;3;2131;0.00339295;-0.00338981;100 µA;
0.39566;139.562;-0.000121155;3;2137;0.00339295;-0.00338981;100 µA;
0.381012;139.928;-0.00012674;3;2143;0.00339295;-0.00338981;100 µA;
0.366364;140.294;-0.000132629;3;2149;0.00339295;-0.00338981;100 µA;
0.351715;140.661;-0.000138611;3;2155;0.00339295;-0.00338981;100 µA;
0.337067;141.027;-0.000144745;3;2161;0.00339295;-0.00338981;100 µA;
0.322418;141.393;-0.000151062;3;2167;0.00339295;-0.00338981;100 µA;
0.30777;141.759;-0.000157318;3;2173;0.00339295;-0.00338981;100 µA;
0.293121;142.125;-0.000163574;3;2179;0.00339295;-0.00338981;100 µA;
0.278473;142.492;-0.000169678;3;2185;0.00339295;-0.00338981;100 µA;
0.263824;142.858;-0.000175629;3;2191;0.00339295;-0.00338981;100 µA;
0.249176;143.224;-0.000181396;3;2197;0.00339295;-0.00338981;100 µA;
0.234528;143.59;-0.00018689;3;2203;0.00339295;-0.00338981;100 µA;
0.219879;143.957;-0.000192047;3;2209;0.00339295;-0.00338981;100 µA;
0.205231;144.323;-0.00019696;3;2215;0.00339295;-0.00338981;100 µA;
0.190582;144.689;-0.000201477;3;2221;0.00339295;-0.00338981;100 µA;
0.175934;145.055;-0.000205811;3;2227;0.00339295;-0.00338981;100 µA;
0.161285;145.421;-0.000209808;3;2233;0.00339295;-0.00338981;100 µA;
0.146637;145.788;-0.00021347;3;2239;0.00339295;-0.00338981;100 µA;
0.131989;146.154;-0.000216888;3;2245;0.00339295;-0.00338981;100 µA;
0.11734;146.52;-0.00021994;3;2251;0.00339295;-0.00338981;100 µA;
0.102692;146.886;-0.000222656;3;2257;0.00339295;-0.00338981;100 µA;
0.0880432;147.252;-0.000225159;3;2263;0.00339295;-0.00338981;100 µA;
0.0733948;147.619;-0.000227356;3;2269;0.00339295;-0.00338981;100 µA;
0.0587463;147.985;-0.000229309;3;2275;0.00339295;-0.00338981;100 µA;
0.0440979;148.351;-0.000231079;3;2281;0.00339295;-0.00338981;100 µA;
0.0294495;148.717;-0.000232666;3;2287;0.00339295;-0.00338981;100 µA;
0.014801;149.083;-0.00023407;3;2293;0.00339295;-0.00338981;100 µA;
0.000152588;149.45;-0.000235382;3;2299;0.00339295;-0.00338981;100 µA;
-0.0144958;149.816;-0.000236603;3;2305;0.00339295;-0.00338981;100 µA;
-0.0291443;150.182;-0.000237701;3;2311;0.00339295;-0.00338981;100 µA;
-0.0437927;150.548;-0.00023877;3;2317;0.00339295;-0.00338981;100 µA;
-0.0584412;150.915;-0.000239807;3;2323;0.00339295;-0.00338981;100 µA;
-0.0730896;151.281;-0.000240936;3;2329;0.00339295;-0.00338981;100 µA;
-0.087738;151.647;-0.000242126;3;2335;0.00339295;-0.00338981;100 µA;
-0.0975037;152.013;-0.000232605;3;2341;0.00339295;-0.00338981;100 µA;
-0.0828552;152.379;-0.000189789;3;2347;0.00339295;-0.00338981;100 µA;
-0.0682068;152.746;-0.000158661;3;2353;0.00339295;-0.00338981;100 µA;
-0.0535583;153.112;-0.000132507;3;2359;0.00339295;-0.00338981;100 µA;
-0.0389099;153.478;-0.00010965;3;2365;0.00339295;-0.00338981;100 µA;
-0.0242615;153.844;-8.94165e-05;3;2371;0.00339295;-0.00338981;100 µA;
-0.00961304;154.21;-7.10754e-05;3;2377;0.00339295;-0.00338981;100 µA;
0.0050354;154.577;-5.43518e-05;3;2383;0.00339295;-0.00338981;100 µA;
0.0196838;154.943;-3.90839e-05;3;2389;0.00339295;-0.00338981;100 µA;
0.0343323;155.309;-2.48688e-05;3;2395;0.00339295;-0.00338981;10 µA;
0.0489807;155.675;-1.17584e-05;3;2401;0.00339295;-0.00338981;10 µA;
0.0636292;156.041;4.67224e-07;3;2407;0.00339295;-0.00338981;10 µA;
0.0782776;156.408;1.18988e-05;3;2413;0.00339295;-0.00338981;10 µA;
0.092926;156.774;2.2699e-05;3;2419;0.00339295;-0.00338981;10 µA;
0.107574;157.14;3.28796e-05;3;2425;0.00339295;-0.00338981;10 µA;
0.122223;157.506;4.25476e-05;3;2431;0.00339295;-0.00338981;10 µA;
0.136871;157.873;5.1767e-05;3;2437;0.00339295;-0.00338981;10 µA;
0.15152;158.239;6.05896e-05;3;2443;0.00339295;-0.00338981;10 µA;
0.166168;158.605;6.88782e-05;3;2449;0.00339295;-0.00338981;100 µA;
0.180817;158.971;7.70264e-05;3;2455;0.00339295;-0.00338981;100 µA;
0.195465;159.337;8.48694e-05;3;2461;0.00339295;-0.00338981;100 µA;
0.210114;159.704;9.25293e-05;3;2467;0.00339295;-0.00338981;100 µA;
0.224762;160.07;9.99451e-05;3;2473;0.00339295;-0.00338981;100 µA;
0.23941;160.436;0.000107147;3;2479;0.00339295;-0.00338981;100 µA;
0.254059;160.802;0.000114136;3;2485;0.00339295;-0.00338981;100 µA;
0.268707;161.168;0.000120941;3;2491;0.00339295;-0.00338981;100 µA;
0.283356;161.535;0.000127472;3;2497;0.00339295;-0.00338981;100 µA;
0.298004;161.901;0.000133911;3;2503;0.00339295;-0.00338981;100 µA;
0.312653;162.267;0.000140228;4;2509;0.0033924;-0.00339619;100 µA;
0.327301;162.633;0.000146423;4;2515;0.0033924;-0.00339619;100 µA;
0.341949;162.999;0.000152557;4;2521;0.0033924;-0.00339619;100 µA;
0.356598;163.366;0.000158661;4;2527;0.0033924;-0.00339619;100 µA;
0.371246;163.732;0.000164825;4;2533;0.0033924;-0.00339619;100 µA;
0.385895;164.098;0.000170807;4;2539;0.0033924;-0.00339619;100 µA;
0.400543;164.464;0.000176697;4;2545;0.0033924;-0.00339619;100 µA;
0.415192;164.83;0.000182404;4;2551;0.0033924;-0.00339619;100 µA;
0.42984;165.197;0.000187622;4;2557;0.0033924;-0.00339619;100 µA;
0.444489;165.563;0.000192474;4;2563;0.0033924;-0.00339619;100 µA;
0.459137;165.929;0.000196838;4;2569;0.0033924;-0.00339619;100 µA;
0.473785;166.295;0.000200562;4;2575;0.0033924;-0.00339619;100 µA;
0.488434;166.662;0.000203735;4;2581;0.0033924;-0.00339619;100 µA;
0.503082;167.028;0.000206299;4;2587;0.0033924;-0.00339619;100 µA;
0.517731;167.394;0.000208252;4;2593;0.0033924;-0.00339619;100 µA;
0.532379;167.76;0.000209839;4;2599;0.0033924;-0.00339619;100 µA;
0.547028;168.126;0.000210876;4;2605;0.0033924;-0.00339619;100 µA;
0.561676;168.493;0.000211639;4;2611;0.0033924;-0.00339619;100 µA;
0.576324;168.859;0.000212067;4;2617;0.0033924;-0.00339619;100 µA;
0.590973;169.225;0.000212311;4;2623;0.0033924;-0.00339619;100 µA;
0.605621;169.591;0.00021225;4;2629;0.0033924;-0.00339619;100 µA;
0.62027;169.957;0.000211975;4;2635;0.0033924;-0.00339619;100 µA;
0.634918;170.324;0.000211548;4;2641;0.0033924;-0.00339619;100 µA;
0.649567;170.69;0.000210999;4;2647;0.0033924;-0.00339619;100 µA;
0.664215;171.056;0.000210205;4;2653;0.0033924;-0.00339619;100 µA;
0.678864;171.422;0.00020929;4;2659;0.0033924;-0.00339619;100 µA;
0.693512;171.788;0.000208344;4;2665;0.0033924;-0.00339619;100 µA;
0.70816;172.155;0.000207214;4;2671;0.0033924;-0.00339619;100 µA;
0.722809;172.521;0.000206116;4;2677;0.0033924;-0.00339619;100 µA;
0.737457;172.887;0.000204895;4;2683;0.0033924;-0.00339619;100 µA;
0.752106;173.253;0.000203674;4;2689;0.0033924;-0.00339619;100 µA;
0.766754;173.62;0.000202515;4;2695;0.0033924;-0.00339619;100 µA;
0.781403;173.986;0.000201324;4;2701;0.0033924;-0.00339619;100 µA;
0.796051;174.352;0.000200195;4;2707;0.0033924;-0.00339619;100 µA;
0.810699;174.718;0.000199158;4;2713;0.0033924;-0.00339619;100 µA;
0.825348;175.084;0.000198334;4;2719;0.0033924;-0.00339619;100 µA;
0.839996;175.451;0.000197754;4;2725;0.0033924;-0.00339619;100 µA;
0.849762;175.817;0.000187073;4;2731;0.0033924;-0.00339619;100 µA;
0.835114;176.183;0.00014621;4;2737;0.0033924;-0.00339619;100 µA;
0.820465;176.549;0.00011734;4;2743;0.0033924;-0.00339619;100 µA;
0.805817;176.915;9.39331e-05;4;2749;0.0033924;-0.00339619;100 µA;
0.791168;177.282;7.41272e-05;4;2755;0.0033924;-0.00339619;100 µA;
0.77652;177.648;5.69763e-05;4;2761;0.0033924;-0.00339619;100 µA;
0.761871;178.014;4.18701e-05;4;2767;0.0033924;-0.00339619;100 µA;
0.747223;178.38;2.85919e-05;4;2773;0.0033924;-0.00339619;10 µA;
0.732574;178.746;1.66626e-05;4;2779;0.0033924;-0.00339619;10 µA;
0.717926;179.113;5.89294e-06;4;2785;0.0033924;-0.00339619;10 µA;
0.703278;179.479;-3.84979e-06;4;2791;0.0033924;-0.00339619;1 µA;
0.688629;179.845;-1.26831e-05;4;2797;0.0033924;-0.00339619;10 µA;
0.673981;180.211;-2.07794e-05;4;2803;0.0033924;-0.00339619;10 µA;
0.659332;180.578;-2.82013e-05;4;2809;0.0033924;-0.00339619;10 µA;
0.644684;180.944;-3.50525e-05;4;2815;0.0033924;-0.00339619;10 µA;
0.630035;181.31;-4.140625E-05;4;2821;0.0033924;-0.00339619;10 µA;
0.615387;181.676;-4.73633e-05;4;2827;0.0033924;-0.00339619;10 µA;
0.600739;182.042;-5.29724e-05;4;2833;0.0033924;-0.00339619;10 µA;
0.58609;182.409;-5.82764e-05;4;2839;0.0033924;-0.00339619;10 µA;
0.571442;182.775;-6.3385e-05;4;2845;0.0033924;-0.00339619;100 µA;
0.556793;183.141;-6.82678e-05;4;2851;0.0033924;-0.00339619;100 µA;
0.542145;183.507;-7.2998e-05;4;2857;0.0033924;-0.00339619;100 µA;
0.527496;183.873;-7.76672e-05;4;2863;0.0033924;-0.00339619;100 µA;
0.512848;184.24;-8.22754e-05;4;2869;0.0033924;-0.00339619;100 µA;
0.498199;184.606;-8.6853e-05;4;2875;0.0033924;-0.00339619;100 µA;
0.483551;184.972;-9.14307e-05;4;2881;0.0033924;-0.00339619;100 µA;
0.468903;185.338;-9.60999e-05;4;2887;0.0033924;-0.00339619;100 µA;
0.454254;185.704;-0.00010083;4;2893;0.0033924;-0.00339619;100 µA;
0.439606;186.071;-0.000105713;4;2899;0.0033924;-0.00339619;100 µA;
0.424957;186.437;-0.000110687;4;2905;0.0033924;-0.00339619;100 µA;
0.410309;186.803;-0.000115906;4;2911;0.0033924;-0.00339619;100 µA;
0.39566;187.169;-0.000121338;4;2917;0.0033924;-0.00339619;100 µA;
0.381012;187.536;-0.000126984;4;2923;0.0033924;-0.00339619;100 µA;
0.366364;187.902;-0.000132843;4;2929;0.0033924;-0.00339619;100 µA;
0.351715;188.268;-0.000138855;4;2935;0.0033924;-0.00339619;100 µA;
0.337067;188.634;-0.000144989;4;2941;0.0033924;-0.00339619;100 µA;
0.322418;189;-0.000151245;4;2947;0.0033924;-0.00339619;100 µA;
0.30777;189.367;-0.000157593;4;2953;0.0033924;-0.00339619;100 µA;
0.293121;189.733;-0.000163818;4;2959;0.0033924;-0.00339619;100 µA;
0.278473;190.099;-0.000169922;4;2965;0.0033924;-0.00339619;100 µA;
0.263824;190.465;-0.000175934;4;2971;0.0033924;-0.00339619;100 µA;
0.249176;190.831;-0.000181671;4;2977;0.0033924;-0.00339619;100 µA;
0.234528;191.198;-0.000187164;4;2983;0.0033924;-0.00339619;100 µA;
0.219879;191.564;-0.000192352;4;2989;0.0033924;-0.00339619;100 µA;
0.205231;191.93;-0.000197235;4;2995;0.0033924;-0.00339619;100 µA;
0.190582;192.296;-0.000201813;4;3001;0.0033924;-0.00339619;100 µA;
0.175934;192.662;-0.000206085;4;3007;0.0033924;-0.00339619;100 µA;
0.161285;193.029;-0.000210083;4;3013;0.0033924;-0.00339619;100 µA;
0.146637;193.395;-0.000213776;4;3019;0.0033924;-0.00339619;100 µA;
0.131989;193.761;-0.000217133;4;3025;0.0033924;-0.00339619;100 µA;
0.11734;194.127;-0.000220245;4;3031;0.0033924;-0.00339619;100 µA;
0.102692;194.494;-0.000222992;4;3037;0.0033924;-0.00339619;100 µA;
0.0880432;194.86;-0.000225464;4;3043;0.0033924;-0.00339619;100 µA;
0.0733948;195.226;-0.000227692;4;3049;0.0033924;-0.00339619;100 µA;
0.0587463;195.592;-0.000229645;4;3055;0.0033924;-0.00339619;100 µA;
0.0440979;195.958;-0.000231384;4;3061;0.0033924;-0.00339619;100 µA;
0.0294495;196.325;-0.00023291;4;3067;0.0033924;-0.00339619;100 µA;
0.014801;196.691;-0.000234314;4;3073;0.0033924;-0.00339619;100 µA;
0.000152588;197.057;-0.000235596;4;3079;0.0033924;-0.00339619;100 µA;
-0.0144958;197.423;-0.000236816;4;3085;0.0033924;-0.00339619;100 µA;
-0.0291443;197.789;-0.000237915;4;3091;0.0033924;-0.00339619;100 µA;
-0.0437927;198.156;-0.000239014;4;3097;0.0033924;-0.00339619;100 µA;
-0.0584412;198.522;-0.000240051;4;3103;0.0033924;-0.00339619;100 µA;
-0.0730896;198.888;-0.000241119;4;3109;0.0033924;-0.00339619;100 µA;
-0.087738;199.254;-0.00024231;4;3115;0.0033924;-0.00339619;100 µA;
-0.0975037;199.62;-0.000232727;4;3121;0.0033924;-0.00339619;100 µA;
-0.0828552;199.987;-0.000189819;4;3127;0.0033924;-0.00339619;100 µA;
-0.0682068;200.353;-0.000158478;4;3133;0.0033924;-0.00339619;100 µA;
-0.0535583;200.719;-0.000132294;4;3139;0.0033924;-0.00339619;100 µA;
-0.0389099;201.085;-0.000109497;4;3145;0.0033924;-0.00339619;100 µA;
-0.0242615;201.451;-8.92334e-05;4;3151;0.0033924;-0.00339619;100 µA;
-0.00961304;201.818;-7.09229e-05;4;3157;0.0033924;-0.00339619;100 µA;
0.0050354;202.184;-5.41992e-05;4;3163;0.0033924;-0.00339619;100 µA;
0.0196838;202.55;-3.89343e-05;4;3169;0.0033924;-0.00339619;100 µA;
0.0343323;202.916;-2.47223e-05;4;3175;0.0033924;-0.00339619;10 µA;
0.0489807;203.283;-1.16119e-05;4;3181;0.0033924;-0.00339619;10 µA;
0.0636292;203.649;6.19812e-07;4;3187;0.0033924;-0.00339619;10 µA;
0.0782776;204.015;1.19202e-05;4;3193;0.0033924;-0.00339619;10 µA;
0.092926;204.381;2.2757e-05;4;3199;0.0033924;-0.00339619;10 µA;
0.107574;204.747;3.29987e-05;4;3205;0.0033924;-0.00339619;10 µA;
0.122223;205.114;4.2688e-05;4;3211;0.0033924;-0.00339619;10 µA;
0.136871;205.48;5.19379e-05;4;3217;0.0033924;-0.00339619;10 µA;
0.15152;205.846;6.07788e-05;4;3223;0.0033924;-0.00339619;10 µA;
0.166168;206.212;6.90918e-05;4;3229;0.0033924;-0.00339619;100 µA;
0.180817;206.578;7.7301e-05;4;3235;0.0033924;-0.00339619;100 µA;
0.195465;206.945;8.51135e-05;4;3241;0.0033924;-0.00339619;100 µA;
0.210114;207.311;9.2804e-05;4;3247;0.0033924;-0.00339619;100 µA;
0.224762;207.677;0.00010025;4;3253;0.0033924;-0.00339619;100 µA;
0.23941;208.043;0.000107452;4;3259;0.0033924;-0.00339619;100 µA;
0.254059;208.409;0.000114471;4;3265;0.0033924;-0.00339619;100 µA;
0.268707;208.776;0.000121277;4;3271;0.0033924;-0.00339619;100 µA;
0.283356;209.142;0.000127869;4;3277;0.0033924;-0.00339619;100 µA;
0.298004;209.508;0.000134308;4;3283;0.0033924;-0.00339619;100 µA;
0.312653;209.874;0.000140656;5;3289;0.00339679;-0.00340496;100 µA;
0.327301;210.241;0.00014682;5;3295;0.00339679;-0.00340496;100 µA;
0.341949;210.607;0.000153015;5;3301;0.00339679;-0.00340496;100 µA;
0.356598;210.973;0.000159088;5;3307;0.00339679;-0.00340496;100 µA;
0.371246;211.339;0.000165222;5;3313;0.00339679;-0.00340496;100 µA;
0.385895;211.705;0.000171295;5;3319;0.00339679;-0.00340496;100 µA;
0.400543;212.072;0.000177155;5;3325;0.00339679;-0.00340496;100 µA;
0.415192;212.438;0.0001828;5;3331;0.00339679;-0.00340496;100 µA;
0.42984;212.804;0.000188141;5;3337;0.00339679;-0.00340496;100 µA;
0.444489;213.17;0.000193054;5;3343;0.00339679;-0.00340496;100 µA;
0.459137;213.536;0.000197388;5;3349;0.00339679;-0.00340496;100 µA;
0.473785;213.903;0.000201141;5;3355;0.00339679;-0.00340496;100 µA;
0.488434;214.269;0.000204254;5;3361;0.00339679;-0.00340496;100 µA;
0.503082;214.635;0.000206787;5;3367;0.00339679;-0.00340496;100 µA;
0.517731;215.001;0.00020874;5;3373;0.00339679;-0.00340496;100 µA;
0.532379;215.367;0.000210327;5;3379;0.00339679;-0.00340496;100 µA;
0.547028;215.734;0.000211365;5;3385;0.00339679;-0.00340496;100 µA;
0.561676;216.1;0.000212067;5;3391;0.00339679;-0.00340496;100 µA;
0.576324;216.466;0.000212494;5;3397;0.00339679;-0.00340496;100 µA;
0.590973;216.832;0.000212646;5;3403;0.00339679;-0.00340496;100 µA;
0.605621;217.199;0.000212555;5;3409;0.00339679;-0.00340496;100 µA;
0.62027;217.565;0.00021228;5;3415;0.00339679;-0.00340496;100 µA;
0.634918;217.931;0.000211823;5;3421;0.00339679;-0.00340496;100 µA;
0.649567;218.297;0.000211121;5;3427;0.00339679;-0.00340496;100 µA;
0.664215;218.663;0.000210358;5;3433;0.00339679;-0.00340496;100 µA;
0.678864;219.03;0.000209381;5;3439;0.00339679;-0.00340496;100 µA;
0.693512;219.396;0.000208374;5;3445;0.00339679;-0.00340496;100 µA;
0.70816;219.762;0.000207245;5;3451;0.00339679;-0.00340496;100 µA;
0.722809;220.128;0.000206085;5;3457;0.00339679;-0.00340496;100 µA;
0.737457;220.494;0.000204865;5;3463;0.00339679;-0.00340496;100 µA;
0.752106;220.861;0.000203613;5;3469;0.00339679;-0.00340496;100 µA;
0.766754;221.227;0.000202423;5;3475;0.00339679;-0.00340496;100 µA;
0.781403;221.593;0.000201172;5;3481;0.00339679;-0.00340496;100 µA;
0.796051;221.959;0.000200043;5;3487;0.00339679;-0.00340496;100 µA;
0.810699;222.325;0.000198975;5;3493;0.00339679;-0.00340496;100 µA;
0.825348;222.692;0.000198059;5;3499;0.00339679;-0.00340496;100 µA;
0.839996;223.058;0.000197479;5;3505;0.00339679;-0.00340496;100 µA;
0.849762;223.424;0.000186676;5;3511;0.00339679;-0.00340496;100 µA;
0.835114;223.79;0.000145752;5;3517;0.00339679;-0.00340496;100 µA;
0.820465;224.157;0.00011676;5;3523;0.00339679;-0.00340496;100 µA;
0.805817;224.523;9.32617e-05;5;3529;0.00339679;-0.00340496;100 µA;
0.791168;224.889;7.34253e-05;5;3535;0.00339679;-0.00340496;100 µA;
0.77652;225.255;5.62134e-05;5;3541;0.00339679;-0.00340496;100 µA;
0.761871;225.621;4.11285e-05;5;3547;0.00339679;-0.00340496;100 µA;
0.747223;225.988;2.78351e-05;5;3553;0.00339679;-0.00340496;10 µA;
0.732574;226.354;1.58905e-05;5;3559;0.00339679;-0.00340496;10 µA;
0.717926;226.72;5.12695e-06;5;3565;0.00339679;-0.00340496;10 µA;
0.703278;227.086;-4.60358e-06;5;3571;0.00339679;-0.00340496;1 µA;
0.688629;227.452;-1.34094e-05;5;3577;0.00339679;-0.00340496;10 µA;
0.673981;227.819;-2.14661e-05;5;3583;0.00339679;-0.00340496;10 µA;
0.659332;228.185;-2.88696e-05;5;3589;0.00339679;-0.00340496;10 µA;
0.644684;228.551;-3.56995e-05;5;3595;0.00339679;-0.00340496;10 µA;
0.630035;228.917;-4.20349e-05;5;3601;0.00339679;-0.00340496;10 µA;
0.615387;229.283;-4.79523e-05;5;3607;0.00339679;-0.00340496;10 µA;
0.600739;229.65;-5.35248e-05;5;3613;0.00339679;-0.00340496;10 µA;
0.58609;230.016;-5.88074e-05;5;3619;0.00339679;-0.00340496;10 µA;
0.571442;230.382;-6.38733e-05;5;3625;0.00339679;-0.00340496;100 µA;
0.556793;230.748;-6.87256e-05;5;3631;0.00339679;-0.00340496;100 µA;
0.542145;231.115;-7.34253e-05;5;3637;0.00339679;-0.00340496;100 µA;
0.527496;231.481;-7.80945e-05;5;3643;0.00339679;-0.00340496;100 µA;
0.512848;231.847;-8.26721e-05;5;3649;0.00339679;-0.00340496;100 µA;
0.498199;232.213;-8.72498e-05;5;3655;0.00339679;-0.00340496;100 µA;
0.483551;232.579;-9.18274e-05;5;3661;0.00339679;-0.00340496;100 µA;
0.468903;232.946;-9.64661e-05;5;3667;0.00339679;-0.00340496;100 µA;
0.454254;233.312;-0.000101196;5;3673;0.00339679;-0.00340496;100 µA;
0.439606;233.678;-0.000106079;5;3679;0.00339679;-0.00340496;100 µA;
0.424957;234.044;-0.000111053;5;3685;0.00339679;-0.00340496;100 µA;
0.410309;234.41;-0.000116302;5;3691;0.00339679;-0.00340496;100 µA;
0.39566;234.777;-0.000121704;5;3697;0.00339679;-0.00340496;100 µA;
0.381012;235.143;-0.00012735;5;3703;0.00339679;-0.00340496;100 µA;
0.366364;235.509;-0.000133209;5;3709;0.00339679;-0.00340496;100 µA;
0.351715;235.875;-0.000139191;5;3715;0.00339679;-0.00340496;100 µA;
0.337067;236.241;-0.000145355;5;3721;0.00339679;-0.00340496;100 µA;
0.322418;236.608;-0.000151672;5;3727;0.00339679;-0.00340496;100 µA;
0.30777;236.974;-0.00015799;5;3733;0.00339679;-0.00340496;100 µA;
0.293121;237.34;-0.000164246;5;3739;0.00339679;-0.00340496;100 µA;
0.278473;237.706;-0.00017038;5;3745;0.00339679;-0.00340496;100 µA;
0.263824;238.072;-0.000176422;5;3751;0.00339679;-0.00340496;100 µA;
0.249176;238.439;-0.000182159;5;3757;0.00339679;-0.00340496;100 µA;
0.234528;238.805;-0.000187683;5;3763;0.00339679;-0.00340496;100 µA;
0.219879;239.171;-0.000192902;5;3769;0.00339679;-0.00340496;100 µA;
0.205231;239.537;-0.000197784;5;3775;0.00339679;-0.00340496;100 µA;
0.190582;239.904;-0.000202362;5;3781;0.00339679;-0.00340496;100 µA;
0.175934;240.27;-0.000206635;5;3787;0.00339679;-0.00340496;100 µA;
0.161285;240.636;-0.000210632;5;3793;0.00339679;-0.00340496;100 µA;
0.146637;241.002;-0.000214355;5;3799;0.00339679;-0.00340496;100 µA;
0.131989;241.368;-0.000217743;5;3805;0.00339679;-0.00340496;100 µA;
0.11734;241.735;-0.000220825;5;3811;0.00339679;-0.00340496;100 µA;
0.102692;242.101;-0.000223541;5;3817;0.00339679;-0.00340496;100 µA;
0.0880432;242.467;-0.000226013;5;3823;0.00339679;-0.00340496;100 µA;
0.0733948;242.833;-0.00022818;5;3829;0.00339679;-0.00340496;100 µA;
0.0587463;243.199;-0.000230133;5;3835;0.00339679;-0.00340496;100 µA;
0.0440979;243.566;-0.000231873;5;3841;0.00339679;-0.00340496;100 µA;
0.0294495;243.932;-0.000233429;5;3847;0.00339679;-0.00340496;100 µA;
0.014801;244.298;-0.000234802;5;3853;0.00339679;-0.00340496;100 µA;
0.000152588;244.664;-0.000236053;5;3859;0.00339679;-0.00340496;100 µA;
-0.0144958;245.03;-0.000237213;5;3865;0.00339679;-0.00340496;100 µA;
-0.0291443;245.397;-0.000238312;5;3871;0.00339679;-0.00340496;100 µA;
-0.0437927;245.763;-0.00023938;5;3877;0.00339679;-0.00340496;100 µA;
-0.0584412;246.129;-0.000240387;5;3883;0.00339679;-0.00340496;100 µA;
-0.0730896;246.495;-0.000241425;5;3889;0.00339679;-0.00340496;100 µA;
-0.087738;246.862;-0.000242554;5;3895;0.00339679;-0.00340496;100 µA;
-0.0975037;247.228;-0.000232941;5;3901;0.00339679;-0.00340496;100 µA;
-0.0828552;247.594;-0.000189911;5;3907;0.00339679;-0.00340496;100 µA;
-0.0682068;247.96;-0.000158417;5;3913;0.00339679;-0.00340496;100 µA;
-0.0535583;248.326;-0.000132202;5;3919;0.00339679;-0.00340496;100 µA;
-0.0389099;248.693;-0.000109314;5;3925;0.00339679;-0.00340496;100 µA;
-0.0242615;249.059;-8.89893e-05;5;3931;0.00339679;-0.00340496;100 µA;
-0.00961304;249.425;-7.06177e-05;5;3937;0.00339679;-0.00340496;100 µA;
0.0050354;249.791;-5.38635e-05;5;3943;0.00339679;-0.00340496;100 µA;
0.0196838;250.157;-3.85651e-05;5;3949;0.00339679;-0.00340496;100 µA;
0.0343323;250.524;-2.43317e-05;5;3955;0.00339679;-0.00340496;10 µA;
0.0489807;250.89;-1.12122e-05;5;3961;0.00339679;-0.00340496;10 µA;
0.0636292;251.256;1.03546e-06;5;3967;0.00339679;-0.00340496;10 µA;
0.0782776;251.622;1.24573e-05;5;3973;0.00339679;-0.00340496;10 µA;
0.092926;251.988;2.32666e-05;5;3979;0.00339679;-0.00340496;10 µA;
0.107574;252.355;3.34412e-05;5;3985;0.00339679;-0.00340496;10 µA;
0.122223;252.721;4.31122e-05;5;3991;0.00339679;-0.00340496;10 µA;
0.136871;253.087;5.23163e-05;5;3997;0.00339679;-0.00340496;10 µA;
0.15152;253.453;6.11511e-05;5;4003;0.00339679;-0.00340496;10 µA;
0.166168;253.82;6.94275e-05;5;4009;0.00339679;-0.00340496;100 µA;
0.180817;254.186;7.76062e-05;5;4015;0.00339679;-0.00340496;100 µA;
0.195465;254.552;8.60596e-05;5;4021;0.00339679;-0.00340496;100 µA;
0.210114;254.918;9.35974e-05;5;4027;0.00339679;-0.00340496;100 µA;
0.224762;255.284;0.000100983;5;4033;0.00339679;-0.00340496;100 µA;
0.23941;255.651;0.000108124;5;4039;0.00339679;-0.00340496;100 µA;
0.254059;256.017;0.000115112;5;4045;0.00339679;-0.00340496;100 µA;
0.268707;256.383;0.000121887;5;4051;0.00339679;-0.00340496;100 µA;
0.283356;256.749;0.000128448;5;4057;0.00339679;-0.00340496;100 µA;
0.298004;257.115;0.000134949;5;4063;0.00339679;-0.00340496;100 µA;
0.300446;257.176;0.000135986;5;4064;0.00339679;-0.00340496;100 µA;