File: 50mV-Mxene3_2.txt
Potential applied (V);Time (s);WE(1).Current (A);Scan;Index;Q+;Q-;Current range;Overload
-0.0975037;45.9365;-0.000268738;1;1;0.00364997;-0.00307028;10 mA;
-0.0828552;46.2295;-0.000187927;1;7;0.00364997;-0.00307028;1 mA;
-0.0682068;46.5224;-0.000146576;1;13;0.00364997;-0.00307028;100 µA;
-0.0535583;46.8154;-0.00011676;1;19;0.00364997;-0.00307028;100 µA;
-0.0389099;47.1084;-9.26514e-05;1;25;0.00364997;-0.00307028;100 µA;
-0.0242615;47.4013;-7.2113e-05;1;31;0.00364997;-0.00307028;100 µA;
-0.00961304;47.6943;-5.39246e-05;1;37;0.00364997;-0.00307028;100 µA;
0.0050354;47.9873;-3.76495e-05;1;43;0.00364997;-0.00307028;100 µA;
0.0196838;48.2803;-2.27386e-05;1;49;0.00364997;-0.00307028;10 µA;
0.0343323;48.5732;-9.06677e-06;1;55;0.00364997;-0.00307028;10 µA;
0.0489807;48.8662;3.61969e-06;1;61;0.00364997;-0.00307028;10 µA;
0.0636292;49.1592;1.54907e-05;1;67;0.00364997;-0.00307028;10 µA;
0.0782776;49.4521;2.66266e-05;1;73;0.00364997;-0.00307028;10 µA;
0.092926;49.7451;3.71765e-05;1;79;0.00364997;-0.00307028;10 µA;
0.107574;50.0381;4.7229e-05;1;85;0.00364997;-0.00307028;10 µA;
0.122223;50.331;5.6781e-05;1;91;0.00364997;-0.00307028;10 µA;
0.136871;50.624;6.58875e-05;1;97;0.00364997;-0.00307028;100 µA;
0.15152;50.917;7.47375e-05;1;103;0.00364997;-0.00307028;100 µA;
0.166168;51.2099;8.3252e-05;1;109;0.00364997;-0.00307028;100 µA;
0.180817;51.5029;9.15222e-05;1;115;0.00364997;-0.00307028;100 µA;
0.195465;51.7959;9.94568e-05;1;121;0.00364997;-0.00307028;100 µA;
0.210114;52.0888;0.0001073;1;127;0.00364997;-0.00307028;100 µA;
0.224762;52.3818;0.000114838;1;133;0.00364997;-0.00307028;100 µA;
0.23941;52.6748;0.000122162;1;139;0.00364997;-0.00307028;100 µA;
0.254059;52.9677;0.000129333;1;145;0.00364997;-0.00307028;100 µA;
0.268707;53.2607;0.000136139;1;151;0.00364997;-0.00307028;100 µA;
0.283356;53.5537;0.000142731;1;157;0.00364997;-0.00307028;100 µA;
0.298004;53.8466;0.000149109;1;163;0.00364997;-0.00307028;100 µA;
0.312653;54.1396;0.000155396;1;169;0.00364997;-0.00307028;100 µA;
0.327301;54.4326;0.000161499;1;175;0.00364997;-0.00307028;100 µA;
0.341949;54.7255;0.000167572;1;181;0.00364997;-0.00307028;100 µA;
0.356598;55.0185;0.000173706;1;187;0.00364997;-0.00307028;100 µA;
0.371246;55.3115;0.000180023;1;193;0.00364997;-0.00307028;100 µA;
0.385895;55.6045;0.000186218;1;199;0.00364997;-0.00307028;100 µA;
0.400543;55.8974;0.000192474;1;205;0.00364997;-0.00307028;100 µA;
0.415192;56.1904;0.000198639;1;211;0.00364997;-0.00307028;100 µA;
0.42984;56.4834;0.00020459;1;217;0.00364997;-0.00307028;100 µA;
0.444489;56.7763;0.000210297;1;223;0.00364997;-0.00307028;100 µA;
0.459137;57.0693;0.000215668;1;229;0.00364997;-0.00307028;100 µA;
0.473785;57.3623;0.000220581;1;235;0.00364997;-0.00307028;100 µA;
0.488434;57.6552;0.000225006;1;241;0.00364997;-0.00307028;100 µA;
0.503082;57.9482;0.000228943;1;247;0.00364997;-0.00307028;100 µA;
0.517731;58.2412;0.000232483;1;253;0.00364997;-0.00307028;100 µA;
0.532379;58.5341;0.000235596;1;259;0.00364997;-0.00307028;100 µA;
0.547028;58.8271;0.000238403;1;265;0.00364997;-0.00307028;100 µA;
0.561676;59.1201;0.000240906;1;271;0.00364997;-0.00307028;100 µA;
0.576324;59.413;0.000243317;1;277;0.00364997;-0.00307028;100 µA;
0.590973;59.706;0.000245361;1;283;0.00364997;-0.00307028;100 µA;
0.605621;59.999;0.000247437;1;289;0.00364997;-0.00307028;100 µA;
0.62027;60.2919;0.000249207;1;295;0.00364997;-0.00307028;100 µA;
0.634918;60.5849;0.000250824;1;301;0.00364997;-0.00307028;100 µA;
0.649567;60.8779;0.00025238;1;307;0.00364997;-0.00307028;100 µA;
0.664215;61.1708;0.000253723;1;313;0.00364997;-0.00307028;100 µA;
0.678864;61.4638;0.000254913;1;319;0.00364997;-0.00307028;100 µA;
0.693512;61.7568;0.000256012;1;325;0.00364997;-0.00307028;100 µA;
0.70816;62.0497;0.000256927;1;331;0.00364997;-0.00307028;100 µA;
0.722809;62.3427;0.000257751;1;337;0.00364997;-0.00307028;100 µA;
0.737457;62.6357;0.000258514;1;343;0.00364997;-0.00307028;100 µA;
0.752106;62.9287;0.000259033;1;349;0.00364997;-0.00307028;100 µA;
0.766754;63.2216;0.000259552;1;355;0.00364997;-0.00307028;100 µA;
0.781403;63.5146;0.000259949;1;361;0.00364997;-0.00307028;100 µA;
0.796051;63.8076;0.000260223;1;367;0.00364997;-0.00307028;100 µA;
0.810699;64.1005;0.000260468;1;373;0.00364997;-0.00307028;100 µA;
0.825348;64.3935;0.000260681;1;379;0.00364997;-0.00307028;100 µA;
0.839996;64.6865;0.000260834;1;385;0.00364997;-0.00307028;100 µA;
0.849762;64.9794;0.000250488;1;391;0.00364997;-0.00307028;100 µA;
0.835114;65.2724;0.000208893;1;397;0.00364997;-0.00307028;100 µA;
0.820465;65.5654;0.000178589;1;403;0.00364997;-0.00307028;100 µA;
0.805817;65.8583;0.000153473;1;409;0.00364997;-0.00307028;100 µA;
0.791168;66.1513;0.000131683;1;415;0.00364997;-0.00307028;100 µA;
0.77652;66.4443;0.000112396;1;421;0.00364997;-0.00307028;100 µA;
0.761871;66.7372;9.50623e-05;1;427;0.00364997;-0.00307028;100 µA;
0.747223;67.0302;7.92847e-05;1;433;0.00364997;-0.00307028;100 µA;
0.732574;67.3232;6.48499e-05;1;439;0.00364997;-0.00307028;100 µA;
0.717926;67.6161;5.15137e-05;1;445;0.00364997;-0.00307028;100 µA;
0.703278;67.9091;3.92822e-05;1;451;0.00364997;-0.00307028;10 µA;
0.688629;68.2021;2.78229e-05;1;457;0.00364997;-0.00307028;10 µA;
0.673981;68.495;1.70837e-05;1;463;0.00364997;-0.00307028;10 µA;
0.659332;68.788;7.04956e-06;1;469;0.00364997;-0.00307028;10 µA;
0.644684;69.081;-2.40753e-06;1;475;0.00364997;-0.00307028;10 µA;
0.630035;69.3739;-1.13403e-05;1;481;0.00364997;-0.00307028;10 µA;
0.615387;69.6669;-1.97876e-05;1;487;0.00364997;-0.00307028;10 µA;
0.600739;69.9599;-2.78412e-05;1;493;0.00364997;-0.00307028;10 µA;
0.58609;70.2529;-3.5495e-05;1;499;0.00364997;-0.00307028;10 µA;
0.571442;70.5458;-4.28345e-05;1;505;0.00364997;-0.00307028;10 µA;
0.556793;70.8388;-4.99298e-05;1;511;0.00364997;-0.00307028;10 µA;
0.542145;71.1318;-5.67444e-05;1;517;0.00364997;-0.00307028;10 µA;
0.527496;71.4247;-6.34155e-05;1;523;0.00364997;-0.00307028;100 µA;
0.512848;71.7177;-6.98853e-05;1;529;0.00364997;-0.00307028;100 µA;
0.498199;72.0107;-7.62634e-05;1;535;0.00364997;-0.00307028;100 µA;
0.483551;72.3036;-8.25195e-05;1;541;0.00364997;-0.00307028;100 µA;
0.468903;72.5966;-8.87451e-05;1;547;0.00364997;-0.00307028;100 µA;
0.454254;72.8896;-9.49402e-05;1;553;0.00364997;-0.00307028;100 µA;
0.439606;73.1825;-0.000101166;1;559;0.00364997;-0.00307028;100 µA;
0.424957;73.4755;-0.000107422;1;565;0.00364997;-0.00307028;100 µA;
0.410309;73.7685;-0.000113739;1;571;0.00364997;-0.00307028;100 µA;
0.39566;74.0614;-0.000120209;1;577;0.00364997;-0.00307028;100 µA;
0.381012;74.3544;-0.000126801;1;583;0.00364997;-0.00307028;100 µA;
0.366364;74.6474;-0.000133514;1;589;0.00364997;-0.00307028;100 µA;
0.351715;74.9403;-0.00014032;1;595;0.00364997;-0.00307028;100 µA;
0.337067;75.2333;-0.000147156;1;601;0.00364997;-0.00307028;100 µA;
0.322418;75.5263;-0.000154022;1;607;0.00364997;-0.00307028;100 µA;
0.30777;75.8192;-0.000160919;1;613;0.00364997;-0.00307028;100 µA;
0.293121;76.1122;-0.000167664;1;619;0.00364997;-0.00307028;100 µA;
0.278473;76.4052;-0.000174255;1;625;0.00364997;-0.00307028;100 µA;
0.263824;76.6981;-0.000180725;1;631;0.00364997;-0.00307028;100 µA;
0.249176;76.9911;-0.00018692;1;637;0.00364997;-0.00307028;100 µA;
0.234528;77.2841;-0.000192841;1;643;0.00364997;-0.00307028;100 µA;
0.219879;77.5771;-0.000198547;1;649;0.00364997;-0.00307028;100 µA;
0.205231;77.87;-0.000203888;1;655;0.00364997;-0.00307028;100 µA;
0.190582;78.163;-0.000209045;1;661;0.00364997;-0.00307028;100 µA;
0.175934;78.456;-0.000213867;1;667;0.00364997;-0.00307028;100 µA;
0.161285;78.7489;-0.000218445;1;673;0.00364997;-0.00307028;100 µA;
0.146637;79.0419;-0.000222839;1;679;0.00364997;-0.00307028;100 µA;
0.131989;79.3349;-0.000226898;1;685;0.00364997;-0.00307028;100 µA;
0.11734;79.6278;-0.000230713;1;691;0.00364997;-0.00307028;100 µA;
0.102692;79.9208;-0.000234253;1;697;0.00364997;-0.00307028;100 µA;
0.0880432;80.2138;-0.00023761;1;703;0.00364997;-0.00307028;100 µA;
0.0733948;80.5067;-0.000240662;1;709;0.00364997;-0.00307028;100 µA;
0.0587463;80.7997;-0.00024353;1;715;0.00364997;-0.00307028;100 µA;
0.0440979;81.0927;-0.000246216;1;721;0.00364997;-0.00307028;100 µA;
0.0294495;81.3856;-0.00024881;1;727;0.00364997;-0.00307028;100 µA;
0.014801;81.6786;-0.000251129;1;733;0.00364997;-0.00307028;100 µA;
0.000152588;81.9716;-0.000253357;1;739;0.00364997;-0.00307028;100 µA;
-0.0144958;82.2645;-0.000255524;1;745;0.00364997;-0.00307028;100 µA;
-0.0291443;82.5575;-0.000257538;1;751;0.00364997;-0.00307028;100 µA;
-0.0437927;82.8505;-0.000259674;1;757;0.00364997;-0.00307028;100 µA;
-0.0584412;83.1434;-0.000261658;1;763;0.00364997;-0.00307028;100 µA;
-0.0730896;83.4364;-0.000263702;1;769;0.00364997;-0.00307028;100 µA;
-0.087738;83.7294;-0.000265686;1;775;0.00364997;-0.00307028;100 µA;
-0.0975037;84.0223;-0.000257111;1;781;0.00364997;-0.00307028;100 µA;
-0.0828552;84.3153;-0.000215302;1;787;0.00364997;-0.00307028;100 µA;
-0.0682068;84.6083;-0.000184479;1;793;0.00364997;-0.00307028;100 µA;
-0.0535583;84.9013;-0.000158661;1;799;0.00364997;-0.00307028;100 µA;
-0.0389099;85.1942;-0.000135956;1;805;0.00364997;-0.00307028;100 µA;
-0.0242615;85.4872;-0.000115509;1;811;0.00364997;-0.00307028;100 µA;
-0.00961304;85.7802;-9.69543e-05;1;817;0.00364997;-0.00307028;100 µA;
0.0050354;86.0731;-7.98035e-05;1;823;0.00364997;-0.00307028;100 µA;
0.0196838;86.3661;-6.39038e-05;1;829;0.00364997;-0.00307028;100 µA;
0.0343323;86.6591;-4.90936e-05;1;835;0.00364997;-0.00307028;100 µA;
0.0489807;86.952;-3.5083e-05;1;841;0.00364997;-0.00307028;10 µA;
0.0636292;87.245;-2.1933e-05;1;847;0.00364997;-0.00307028;10 µA;
0.0782776;87.538;-9.49707e-06;1;853;0.00364997;-0.00307028;10 µA;
0.092926;87.8309;2.35962e-06;1;859;0.00364997;-0.00307028;10 µA;
0.107574;88.1239;1.36963e-05;1;865;0.00364997;-0.00307028;10 µA;
0.122223;88.4169;2.45056e-05;1;871;0.00364997;-0.00307028;10 µA;
0.136871;88.7098;3.49182e-05;1;877;0.00364997;-0.00307028;10 µA;
0.15152;89.0028;4.4928e-05;1;883;0.00364997;-0.00307028;10 µA;
0.166168;89.2958;5.45868e-05;1;889;0.00364997;-0.00307028;10 µA;
0.180817;89.5887;6.38733e-05;1;895;0.00364997;-0.00307028;100 µA;
0.195465;89.8817;7.29065e-05;1;901;0.00364997;-0.00307028;100 µA;
0.210114;90.1747;8.17566e-05;1;907;0.00364997;-0.00307028;100 µA;
0.224762;90.4676;9.0332e-05;1;913;0.00364997;-0.00307028;100 µA;
0.23941;90.7606;9.86328e-05;1;919;0.00364997;-0.00307028;100 µA;
0.254059;91.0536;0.000106689;1;925;0.00364997;-0.00307028;100 µA;
0.268707;91.3465;0.000114532;1;931;0.00364997;-0.00307028;100 µA;
0.283356;91.6395;0.000122131;1;937;0.00364997;-0.00307028;100 µA;
0.298004;91.9325;0.000129578;1;943;0.00364997;-0.00307028;100 µA;
0.312653;92.2255;0.000136841;2;949;0.00294678;-0.00288788;100 µA;
0.327301;92.5184;0.000143951;2;955;0.00294678;-0.00288788;100 µA;
0.341949;92.8114;0.000151001;2;961;0.00294678;-0.00288788;100 µA;
0.356598;93.1044;0.00015802;2;967;0.00294678;-0.00288788;100 µA;
0.371246;93.3973;0.000165009;2;973;0.00294678;-0.00288788;100 µA;
0.385895;93.6903;0.000171906;2;979;0.00294678;-0.00288788;100 µA;
0.400543;93.9833;0.000178711;2;985;0.00294678;-0.00288788;100 µA;
0.415192;94.2762;0.000185272;2;991;0.00294678;-0.00288788;100 µA;
0.42984;94.5692;0.000191528;2;997;0.00294678;-0.00288788;100 µA;
0.444489;94.8622;0.000197418;2;1003;0.00294678;-0.00288788;100 µA;
0.459137;95.1551;0.000202789;2;1009;0.00294678;-0.00288788;100 µA;
0.473785;95.4481;0.000207672;2;1015;0.00294678;-0.00288788;100 µA;
0.488434;95.7411;0.000212036;2;1021;0.00294678;-0.00288788;100 µA;
0.503082;96.034;0.00021582;2;1027;0.00294678;-0.00288788;100 µA;
0.517731;96.327;0.000219025;2;1033;0.00294678;-0.00288788;100 µA;
0.532379;96.62;0.000221893;2;1039;0.00294678;-0.00288788;100 µA;
0.547028;96.9129;0.000224335;2;1045;0.00294678;-0.00288788;100 µA;
0.561676;97.2059;0.000226471;2;1051;0.00294678;-0.00288788;100 µA;
0.576324;97.4989;0.000228333;2;1057;0.00294678;-0.00288788;100 µA;
0.590973;97.7918;0.00022995;2;1063;0.00294678;-0.00288788;100 µA;
0.605621;98.0848;0.000231354;2;1069;0.00294678;-0.00288788;100 µA;
0.62027;98.3778;0.000232544;2;1075;0.00294678;-0.00288788;100 µA;
0.634918;98.6707;0.000233643;2;1081;0.00294678;-0.00288788;100 µA;
0.649567;98.9637;0.000234436;2;1087;0.00294678;-0.00288788;100 µA;
0.664215;99.2567;0.000235107;2;1093;0.00294678;-0.00288788;100 µA;
0.678864;99.5497;0.000235687;2;1099;0.00294678;-0.00288788;100 µA;
0.693512;99.8426;0.000236053;2;1105;0.00294678;-0.00288788;100 µA;
0.70816;100.136;0.000236298;2;1111;0.00294678;-0.00288788;100 µA;
0.722809;100.429;0.000236389;2;1117;0.00294678;-0.00288788;100 µA;
0.737457;100.722;0.00023645;2;1123;0.00294678;-0.00288788;100 µA;
0.752106;101.014;0.000236328;2;1129;0.00294678;-0.00288788;100 µA;
0.766754;101.307;0.000236176;2;1135;0.00294678;-0.00288788;100 µA;
0.781403;101.6;0.000235931;2;1141;0.00294678;-0.00288788;100 µA;
0.796051;101.893;0.000235809;2;1147;0.00294678;-0.00288788;100 µA;
0.810699;102.186;0.000235565;2;1153;0.00294678;-0.00288788;100 µA;
0.825348;102.479;0.000235382;2;1159;0.00294678;-0.00288788;100 µA;
0.839996;102.772;0.000235443;2;1165;0.00294678;-0.00288788;100 µA;
0.849762;103.065;0.000225281;2;1171;0.00294678;-0.00288788;100 µA;
0.835114;103.358;0.000184662;2;1177;0.00294678;-0.00288788;100 µA;
0.820465;103.651;0.000155426;2;1183;0.00294678;-0.00288788;100 µA;
0.805817;103.944;0.000131287;2;1189;0.00294678;-0.00288788;100 µA;
0.791168;104.237;0.000110413;2;1195;0.00294678;-0.00288788;100 µA;
0.77652;104.53;9.2041e-05;2;1201;0.00294678;-0.00288788;100 µA;
0.761871;104.823;7.56226e-05;2;1207;0.00294678;-0.00288788;100 µA;
0.747223;105.116;6.073e-05;2;1213;0.00294678;-0.00288788;100 µA;
0.732574;105.409;4.71741e-05;2;1219;0.00294678;-0.00288788;100 µA;
0.717926;105.702;3.48083e-05;2;1225;0.00294678;-0.00288788;10 µA;
0.703278;105.995;2.33032e-05;2;1231;0.00294678;-0.00288788;10 µA;
0.688629;106.288;1.26892e-05;2;1237;0.00294678;-0.00288788;10 µA;
0.673981;106.581;2.76428e-06;2;1243;0.00294678;-0.00288788;10 µA;
0.659332;106.874;-6.50604e-06;2;1249;0.00294678;-0.00288788;1 µA;
0.644684;107.167;-1.51886e-05;2;1255;0.00294678;-0.00288788;10 µA;
0.630035;107.46;-2.33704e-05;2;1261;0.00294678;-0.00288788;10 µA;
0.615387;107.753;-3.11371e-05;2;1267;0.00294678;-0.00288788;10 µA;
0.600739;108.046;-3.85101e-05;2;1273;0.00294678;-0.00288788;10 µA;
0.58609;108.339;-4.55322e-05;2;1279;0.00294678;-0.00288788;10 µA;
0.571442;108.632;-5.22614e-05;2;1285;0.00294678;-0.00288788;10 µA;
0.556793;108.925;-5.87708e-05;2;1291;0.00294678;-0.00288788;10 µA;
0.542145;109.218;-6.5033e-05;2;1297;0.00294678;-0.00288788;100 µA;
0.527496;109.511;-7.1167e-05;2;1303;0.00294678;-0.00288788;100 µA;
0.512848;109.804;-7.71484e-05;2;1309;0.00294678;-0.00288788;100 µA;
0.498199;110.096;-8.32825e-05;2;1315;0.00294678;-0.00288788;100 µA;
0.483551;110.389;-8.90198e-05;2;1321;0.00294678;-0.00288788;100 µA;
0.468903;110.682;-9.47876e-05;2;1327;0.00294678;-0.00288788;100 µA;
0.454254;110.975;-0.000100616;2;1333;0.00294678;-0.00288788;100 µA;
0.439606;111.268;-0.000106476;2;1339;0.00294678;-0.00288788;100 µA;
0.424957;111.561;-0.000112335;2;1345;0.00294678;-0.00288788;100 µA;
0.410309;111.854;-0.000118378;2;1351;0.00294678;-0.00288788;100 µA;
0.39566;112.147;-0.000124573;2;1357;0.00294678;-0.00288788;100 µA;
0.381012;112.44;-0.00013089;2;1363;0.00294678;-0.00288788;100 µA;
0.366364;112.733;-0.00013736;2;1369;0.00294678;-0.00288788;100 µA;
0.351715;113.026;-0.00014389;2;1375;0.00294678;-0.00288788;100 µA;
0.337067;113.319;-0.000150513;2;1381;0.00294678;-0.00288788;100 µA;
0.322418;113.612;-0.000157257;2;1387;0.00294678;-0.00288788;100 µA;
0.30777;113.905;-0.000163971;2;1393;0.00294678;-0.00288788;100 µA;
0.293121;114.198;-0.000170624;2;1399;0.00294678;-0.00288788;100 µA;
0.278473;114.491;-0.000177094;2;1405;0.00294678;-0.00288788;100 µA;
0.263824;114.784;-0.000183502;2;1411;0.00294678;-0.00288788;100 µA;
0.249176;115.077;-0.000189636;2;1417;0.00294678;-0.00288788;100 µA;
0.234528;115.37;-0.000195526;2;1423;0.00294678;-0.00288788;100 µA;
0.219879;115.663;-0.000201202;2;1429;0.00294678;-0.00288788;100 µA;
0.205231;115.956;-0.000206543;2;1435;0.00294678;-0.00288788;100 µA;
0.190582;116.249;-0.000211609;2;1441;0.00294678;-0.00288788;100 µA;
0.175934;116.542;-0.000216492;2;1447;0.00294678;-0.00288788;100 µA;
0.161285;116.835;-0.000221069;2;1453;0.00294678;-0.00288788;100 µA;
0.146637;117.128;-0.000225403;2;1459;0.00294678;-0.00288788;100 µA;
0.131989;117.421;-0.000229462;2;1465;0.00294678;-0.00288788;100 µA;
0.11734;117.714;-0.000233307;2;1471;0.00294678;-0.00288788;100 µA;
0.102692;118.007;-0.000236786;2;1477;0.00294678;-0.00288788;100 µA;
0.0880432;118.3;-0.000240082;2;1483;0.00294678;-0.00288788;100 µA;
0.0733948;118.593;-0.000243164;2;1489;0.00294678;-0.00288788;100 µA;
0.0587463;118.886;-0.000245972;2;1495;0.00294678;-0.00288788;100 µA;
0.0440979;119.179;-0.000248596;2;1501;0.00294678;-0.00288788;100 µA;
0.0294495;119.471;-0.000251068;2;1507;0.00294678;-0.00288788;100 µA;
0.014801;119.764;-0.000253479;2;1513;0.00294678;-0.00288788;100 µA;
0.000152588;120.057;-0.000255646;2;1519;0.00294678;-0.00288788;100 µA;
-0.0144958;120.35;-0.000257843;2;1525;0.00294678;-0.00288788;100 µA;
-0.0291443;120.643;-0.000259796;2;1531;0.00294678;-0.00288788;100 µA;
-0.0437927;120.936;-0.00026178;2;1537;0.00294678;-0.00288788;100 µA;
-0.0584412;121.229;-0.000263702;2;1543;0.00294678;-0.00288788;100 µA;
-0.0730896;121.522;-0.000265686;2;1549;0.00294678;-0.00288788;100 µA;
-0.087738;121.815;-0.000267639;2;1555;0.00294678;-0.00288788;100 µA;
-0.0975037;122.108;-0.000258972;2;1561;0.00294678;-0.00288788;100 µA;
-0.0828552;122.401;-0.000217133;2;1567;0.00294678;-0.00288788;100 µA;
-0.0682068;122.694;-0.000186371;2;1573;0.00294678;-0.00288788;100 µA;
-0.0535583;122.987;-0.000160461;2;1579;0.00294678;-0.00288788;100 µA;
-0.0389099;123.28;-0.000137787;2;1585;0.00294678;-0.00288788;100 µA;
-0.0242615;123.573;-0.000117371;2;1591;0.00294678;-0.00288788;100 µA;
-0.00961304;123.866;-9.87549e-05;2;1597;0.00294678;-0.00288788;100 µA;
0.0050354;124.159;-8.1604e-05;2;1603;0.00294678;-0.00288788;100 µA;
0.0196838;124.452;-6.56738e-05;2;1609;0.00294678;-0.00288788;100 µA;
0.0343323;124.745;-5.078125E-05;2;1615;0.00294678;-0.00288788;100 µA;
0.0489807;125.038;-3.6795e-05;2;1621;0.00294678;-0.00288788;10 µA;
0.0636292;125.331;-2.36053e-05;2;1627;0.00294678;-0.00288788;10 µA;
0.0782776;125.624;-1.11481e-05;2;1633;0.00294678;-0.00288788;10 µA;
0.092926;125.917;7.40356e-07;2;1639;0.00294678;-0.00288788;10 µA;
0.107574;126.21;1.20911e-05;2;1645;0.00294678;-0.00288788;10 µA;
0.122223;126.503;2.29279e-05;2;1651;0.00294678;-0.00288788;10 µA;
0.136871;126.796;3.33801e-05;2;1657;0.00294678;-0.00288788;10 µA;
0.15152;127.089;4.34448e-05;2;1663;0.00294678;-0.00288788;10 µA;
0.166168;127.382;5.31097e-05;2;1669;0.00294678;-0.00288788;10 µA;
0.180817;127.675;6.24084e-05;2;1675;0.00294678;-0.00288788;100 µA;
0.195465;127.968;7.15027e-05;2;1681;0.00294678;-0.00288788;100 µA;
0.210114;128.261;8.03833e-05;2;1687;0.00294678;-0.00288788;100 µA;
0.224762;128.553;8.90198e-05;2;1693;0.00294678;-0.00288788;100 µA;
0.23941;128.846;9.73816e-05;2;1699;0.00294678;-0.00288788;100 µA;
0.254059;129.139;0.00010553;2;1705;0.00294678;-0.00288788;100 µA;
0.268707;129.432;0.000113373;2;1711;0.00294678;-0.00288788;100 µA;
0.283356;129.725;0.000121063;2;1717;0.00294678;-0.00288788;100 µA;
0.298004;130.018;0.00012851;2;1723;0.00294678;-0.00288788;100 µA;
0.312653;130.311;0.000135895;3;1729;0.00292413;-0.00290248;100 µA;
0.327301;130.604;0.000143066;3;1735;0.00292413;-0.00290248;100 µA;
0.341949;130.897;0.000150238;3;1741;0.00292413;-0.00290248;100 µA;
0.356598;131.19;0.000157257;3;1747;0.00292413;-0.00290248;100 µA;
0.371246;131.483;0.000164307;3;1753;0.00292413;-0.00290248;100 µA;
0.385895;131.776;0.000171265;3;1759;0.00292413;-0.00290248;100 µA;
0.400543;132.069;0.000178101;3;1765;0.00292413;-0.00290248;100 µA;
0.415192;132.362;0.000184723;3;1771;0.00292413;-0.00290248;100 µA;
0.42984;132.655;0.000190918;3;1777;0.00292413;-0.00290248;100 µA;
0.444489;132.948;0.000196838;3;1783;0.00292413;-0.00290248;100 µA;
0.459137;133.241;0.000202271;3;1789;0.00292413;-0.00290248;100 µA;
0.473785;133.534;0.000207092;3;1795;0.00292413;-0.00290248;100 µA;
0.488434;133.827;0.000211426;3;1801;0.00292413;-0.00290248;100 µA;
0.503082;134.12;0.00021521;3;1807;0.00292413;-0.00290248;100 µA;
0.517731;134.413;0.000218384;3;1813;0.00292413;-0.00290248;100 µA;
0.532379;134.706;0.000221161;3;1819;0.00292413;-0.00290248;100 µA;
0.547028;134.999;0.000223572;3;1825;0.00292413;-0.00290248;100 µA;
0.561676;135.292;0.000225677;3;1831;0.00292413;-0.00290248;100 µA;
0.576324;135.585;0.000227478;3;1837;0.00292413;-0.00290248;100 µA;
0.590973;135.878;0.000229004;3;1843;0.00292413;-0.00290248;100 µA;
0.605621;136.171;0.000230347;3;1849;0.00292413;-0.00290248;100 µA;
0.62027;136.464;0.000231506;3;1855;0.00292413;-0.00290248;100 µA;
0.634918;136.757;0.000232452;3;1861;0.00292413;-0.00290248;100 µA;
0.649567;137.05;0.000233246;3;1867;0.00292413;-0.00290248;100 µA;
0.664215;137.343;0.000233856;3;1873;0.00292413;-0.00290248;100 µA;
0.678864;137.635;0.000234253;3;1879;0.00292413;-0.00290248;100 µA;
0.693512;137.928;0.000234589;3;1885;0.00292413;-0.00290248;100 µA;
0.70816;138.221;0.00023465;3;1891;0.00292413;-0.00290248;100 µA;
0.722809;138.514;0.00023468;3;1897;0.00292413;-0.00290248;100 µA;
0.737457;138.807;0.000234619;3;1903;0.00292413;-0.00290248;100 µA;
0.752106;139.1;0.000234406;3;1909;0.00292413;-0.00290248;100 µA;
0.766754;139.393;0.000234131;3;1915;0.00292413;-0.00290248;100 µA;
0.781403;139.686;0.000233795;3;1921;0.00292413;-0.00290248;100 µA;
0.796051;139.979;0.000233459;3;1927;0.00292413;-0.00290248;100 µA;
0.810699;140.272;0.000233063;3;1933;0.00292413;-0.00290248;100 µA;
0.825348;140.565;0.000232758;3;1939;0.00292413;-0.00290248;100 µA;
0.839996;140.858;0.000232574;3;1945;0.00292413;-0.00290248;100 µA;
0.849762;141.151;0.000222229;3;1951;0.00292413;-0.00290248;100 µA;
0.835114;141.444;0.00018158;3;1957;0.00292413;-0.00290248;100 µA;
0.820465;141.737;0.000152283;3;1963;0.00292413;-0.00290248;100 µA;
0.805817;142.03;0.000128204;3;1969;0.00292413;-0.00290248;100 µA;
0.791168;142.323;0.000107391;3;1975;0.00292413;-0.00290248;100 µA;
0.77652;142.616;8.90503e-05;3;1981;0.00292413;-0.00290248;100 µA;
0.761871;142.909;7.26318e-05;3;1987;0.00292413;-0.00290248;100 µA;
0.747223;143.202;5.78003e-05;3;1993;0.00292413;-0.00290248;100 µA;
0.732574;143.495;4.42993e-05;3;1999;0.00292413;-0.00290248;100 µA;
0.717926;143.788;3.19885e-05;3;2005;0.00292413;-0.00290248;10 µA;
0.703278;144.081;2.05719e-05;3;2011;0.00292413;-0.00290248;10 µA;
0.688629;144.374;1.00464e-05;3;2017;0.00292413;-0.00290248;10 µA;
0.673981;144.667;1.87683e-07;3;2023;0.00292413;-0.00290248;10 µA;
0.659332;144.96;-8.984375E-06;3;2029;0.00292413;-0.00290248;10 µA;
0.644684;145.253;-1.7569e-05;3;2035;0.00292413;-0.00290248;10 µA;
0.630035;145.546;-2.56775e-05;3;2041;0.00292413;-0.00290248;10 µA;
0.615387;145.839;-3.33435e-05;3;2047;0.00292413;-0.00290248;10 µA;
0.600739;146.132;-4.05975e-05;3;2053;0.00292413;-0.00290248;10 µA;
0.58609;146.425;-4.75342e-05;3;2059;0.00292413;-0.00290248;10 µA;
0.571442;146.717;-5.41687e-05;3;2065;0.00292413;-0.00290248;10 µA;
0.556793;147.01;-6.05591e-05;3;2071;0.00292413;-0.00290248;10 µA;
0.542145;147.303;-6.67419e-05;3;2077;0.00292413;-0.00290248;100 µA;
0.527496;147.596;-7.27844e-05;3;2083;0.00292413;-0.00290248;100 µA;
0.512848;147.889;-7.86743e-05;3;2089;0.00292413;-0.00290248;100 µA;
0.498199;148.182;-8.44421e-05;3;2095;0.00292413;-0.00290248;100 µA;
0.483551;148.475;-9.021e-05;3;2101;0.00292413;-0.00290248;100 µA;
0.468903;148.768;-9.59473e-05;3;2107;0.00292413;-0.00290248;100 µA;
0.454254;149.061;-0.000101685;3;2113;0.00292413;-0.00290248;100 µA;
0.439606;149.354;-0.000107483;3;2119;0.00292413;-0.00290248;100 µA;
0.424957;149.647;-0.000113281;3;2125;0.00292413;-0.00290248;100 µA;
0.410309;149.94;-0.000119263;3;2131;0.00292413;-0.00290248;100 µA;
0.39566;150.233;-0.000125366;3;2137;0.00292413;-0.00290248;100 µA;
0.381012;150.526;-0.000131653;3;2143;0.00292413;-0.00290248;100 µA;
0.366364;150.819;-0.000138062;3;2149;0.00292413;-0.00290248;100 µA;
0.351715;151.112;-0.000144562;3;2155;0.00292413;-0.00290248;100 µA;
0.337067;151.405;-0.000151154;3;2161;0.00292413;-0.00290248;100 µA;
0.322418;151.698;-0.000157806;3;2167;0.00292413;-0.00290248;100 µA;
0.30777;151.991;-0.00016452;3;2173;0.00292413;-0.00290248;100 µA;
0.293121;152.284;-0.000171143;3;2179;0.00292413;-0.00290248;100 µA;
0.278473;152.577;-0.000177643;3;2185;0.00292413;-0.00290248;100 µA;
0.263824;152.87;-0.000183929;3;2191;0.00292413;-0.00290248;100 µA;
0.249176;153.163;-0.000190063;3;2197;0.00292413;-0.00290248;100 µA;
0.234528;153.456;-0.000196045;3;2203;0.00292413;-0.00290248;100 µA;
0.219879;153.749;-0.00020166;3;2209;0.00292413;-0.00290248;100 µA;
0.205231;154.042;-0.000207031;3;2215;0.00292413;-0.00290248;100 µA;
0.190582;154.335;-0.000212158;3;2221;0.00292413;-0.00290248;100 µA;
0.175934;154.628;-0.00021698;3;2227;0.00292413;-0.00290248;100 µA;
0.161285;154.921;-0.000221558;3;2233;0.00292413;-0.00290248;100 µA;
0.146637;155.214;-0.000225861;3;2239;0.00292413;-0.00290248;100 µA;
0.131989;155.507;-0.00022998;3;2245;0.00292413;-0.00290248;100 µA;
0.11734;155.8;-0.000233765;3;2251;0.00292413;-0.00290248;100 µA;
0.102692;156.092;-0.000237335;3;2257;0.00292413;-0.00290248;100 µA;
0.0880432;156.385;-0.00024057;3;2263;0.00292413;-0.00290248;100 µA;
0.0733948;156.678;-0.000243591;3;2269;0.00292413;-0.00290248;100 µA;
0.0587463;156.971;-0.00024646;3;2275;0.00292413;-0.00290248;100 µA;
0.0440979;157.264;-0.000249054;3;2281;0.00292413;-0.00290248;100 µA;
0.0294495;157.557;-0.000251495;3;2287;0.00292413;-0.00290248;100 µA;
0.014801;157.85;-0.000253815;3;2293;0.00292413;-0.00290248;100 µA;
0.000152588;158.143;-0.000256012;3;2299;0.00292413;-0.00290248;100 µA;
-0.0144958;158.436;-0.000258118;3;2305;0.00292413;-0.00290248;100 µA;
-0.0291443;158.729;-0.000260101;3;2311;0.00292413;-0.00290248;100 µA;
-0.0437927;159.022;-0.000262054;3;2317;0.00292413;-0.00290248;100 µA;
-0.0584412;159.315;-0.000264008;3;2323;0.00292413;-0.00290248;100 µA;
-0.0730896;159.608;-0.0002659;3;2329;0.00292413;-0.00290248;100 µA;
-0.087738;159.901;-0.000267822;3;2335;0.00292413;-0.00290248;100 µA;
-0.0975037;160.194;-0.000259155;3;2341;0.00292413;-0.00290248;100 µA;
-0.0828552;160.487;-0.000217316;3;2347;0.00292413;-0.00290248;100 µA;
-0.0682068;160.78;-0.000186554;3;2353;0.00292413;-0.00290248;100 µA;
-0.0535583;161.073;-0.000160675;3;2359;0.00292413;-0.00290248;100 µA;
-0.0389099;161.366;-0.000138;3;2365;0.00292413;-0.00290248;100 µA;
-0.0242615;161.659;-0.000117615;3;2371;0.00292413;-0.00290248;100 µA;
-0.00961304;161.952;-9.8999e-05;3;2377;0.00292413;-0.00290248;100 µA;
0.0050354;162.245;-8.18481e-05;3;2383;0.00292413;-0.00290248;100 µA;
0.0196838;162.538;-6.5918e-05;3;2389;0.00292413;-0.00290248;100 µA;
0.0343323;162.831;-5.10559e-05;3;2395;0.00292413;-0.00290248;100 µA;
0.0489807;163.124;-3.70361e-05;3;2401;0.00292413;-0.00290248;10 µA;
0.0636292;163.417;-2.38556e-05;3;2407;0.00292413;-0.00290248;10 µA;
0.0782776;163.71;-1.14014e-05;3;2413;0.00292413;-0.00290248;10 µA;
0.092926;164.003;4.98047e-07;3;2419;0.00292413;-0.00290248;10 µA;
0.107574;164.296;1.18408e-05;3;2425;0.00292413;-0.00290248;10 µA;
0.122223;164.589;2.26868e-05;3;2431;0.00292413;-0.00290248;10 µA;
0.136871;164.882;3.3139e-05;3;2437;0.00292413;-0.00290248;10 µA;
0.15152;165.174;4.31885e-05;3;2443;0.00292413;-0.00290248;10 µA;
0.166168;165.467;5.28778e-05;3;2449;0.00292413;-0.00290248;10 µA;
0.180817;165.76;6.21643e-05;3;2455;0.00292413;-0.00290248;100 µA;
0.195465;166.053;7.12585e-05;3;2461;0.00292413;-0.00290248;100 µA;
0.210114;166.346;8.01392e-05;3;2467;0.00292413;-0.00290248;100 µA;
0.224762;166.639;8.88062e-05;3;2473;0.00292413;-0.00290248;100 µA;
0.23941;166.932;9.71985e-05;3;2479;0.00292413;-0.00290248;100 µA;
0.254059;167.225;0.000105347;3;2485;0.00292413;-0.00290248;100 µA;
0.268707;167.518;0.000115814;3;2491;0.00292413;-0.00290248;100 µA;
0.283356;167.811;0.000123779;3;2497;0.00292413;-0.00290248;100 µA;
0.298004;168.104;0.000131561;3;2503;0.00292413;-0.00290248;100 µA;
0.312653;168.397;0.00013916;4;2509;0.00297472;-0.00298861;100 µA;
0.327301;168.69;0.000146576;4;2515;0.00297472;-0.00298861;100 µA;
0.341949;168.983;0.000153961;4;2521;0.00297472;-0.00298861;100 µA;
0.356598;169.276;0.000161194;4;2527;0.00297472;-0.00298861;100 µA;
0.371246;169.569;0.000168488;4;2533;0.00297472;-0.00298861;100 µA;
0.385895;169.862;0.000175629;4;2539;0.00297472;-0.00298861;100 µA;
0.400543;170.155;0.000182648;4;2545;0.00297472;-0.00298861;100 µA;
0.415192;170.448;0.000189453;4;2551;0.00297472;-0.00298861;100 µA;
0.42984;170.741;0.000195862;4;2557;0.00297472;-0.00298861;100 µA;
0.444489;171.034;0.000201935;4;2563;0.00297472;-0.00298861;100 µA;
0.459137;171.327;0.00020752;4;2569;0.00297472;-0.00298861;100 µA;
0.473785;171.62;0.000212555;4;2575;0.00297472;-0.00298861;100 µA;
0.488434;171.913;0.000217041;4;2581;0.00297472;-0.00298861;100 µA;
0.503082;172.206;0.000220886;4;2587;0.00297472;-0.00298861;100 µA;
0.517731;172.499;0.000224304;4;2593;0.00297472;-0.00298861;100 µA;
0.532379;172.792;0.000227112;4;2599;0.00297472;-0.00298861;100 µA;
0.547028;173.085;0.000229462;4;2605;0.00297472;-0.00298861;100 µA;
0.561676;173.378;0.000231506;4;2611;0.00297472;-0.00298861;100 µA;
0.576324;173.671;0.000233246;4;2617;0.00297472;-0.00298861;100 µA;
0.590973;173.964;0.00023465;4;2623;0.00297472;-0.00298861;100 µA;
0.605621;174.256;0.000235779;4;2629;0.00297472;-0.00298861;100 µA;
0.62027;174.549;0.000236664;4;2635;0.00297472;-0.00298861;100 µA;
0.634918;174.842;0.000237366;4;2641;0.00297472;-0.00298861;100 µA;
0.649567;175.135;0.000237854;4;2647;0.00297472;-0.00298861;100 µA;
0.664215;175.428;0.000238068;4;2653;0.00297472;-0.00298861;100 µA;
0.678864;175.721;0.000238159;4;2659;0.00297472;-0.00298861;100 µA;
0.693512;176.014;0.000238037;4;2665;0.00297472;-0.00298861;100 µA;
0.70816;176.307;0.000237793;4;2671;0.00297472;-0.00298861;100 µA;
0.722809;176.6;0.000237427;4;2677;0.00297472;-0.00298861;100 µA;
0.737457;176.893;0.000236969;4;2683;0.00297472;-0.00298861;100 µA;
0.752106;177.186;0.00023642;4;2689;0.00297472;-0.00298861;100 µA;
0.766754;177.479;0.000235931;4;2695;0.00297472;-0.00298861;100 µA;
0.781403;177.772;0.000235291;4;2701;0.00297472;-0.00298861;100 µA;
0.796051;178.065;0.000234772;4;2707;0.00297472;-0.00298861;100 µA;
0.810699;178.358;0.000234253;4;2713;0.00297472;-0.00298861;100 µA;
0.825348;178.651;0.000233856;4;2719;0.00297472;-0.00298861;100 µA;
0.839996;178.944;0.000233643;4;2725;0.00297472;-0.00298861;100 µA;
0.849762;179.237;0.000223022;4;2731;0.00297472;-0.00298861;100 µA;
0.835114;179.53;0.000181061;4;2737;0.00297472;-0.00298861;100 µA;
0.820465;179.823;0.000150757;4;2743;0.00297472;-0.00298861;100 µA;
0.805817;180.116;0.000125824;4;2749;0.00297472;-0.00298861;100 µA;
0.791168;180.409;0.00010437;4;2755;0.00297472;-0.00298861;100 µA;
0.77652;180.702;8.55103e-05;4;2761;0.00297472;-0.00298861;100 µA;
0.761871;180.995;6.86951e-05;4;2767;0.00297472;-0.00298861;100 µA;
0.747223;181.288;5.34973e-05;4;2773;0.00297472;-0.00298861;100 µA;
0.732574;181.581;3.974e-05;4;2779;0.00297472;-0.00298861;100 µA;
0.717926;181.874;2.72491e-05;4;2785;0.00297472;-0.00298861;10 µA;
0.703278;182.167;1.5683e-05;4;2791;0.00297472;-0.00298861;10 µA;
0.688629;182.46;5.01709e-06;4;2797;0.00297472;-0.00298861;10 µA;
0.673981;182.753;-4.87946e-06;4;2803;0.00297472;-0.00298861;1 µA;
0.659332;183.046;-1.40778e-05;4;2809;0.00297472;-0.00298861;10 µA;
0.644684;183.338;-2.26776e-05;4;2815;0.00297472;-0.00298861;10 µA;
0.630035;183.631;-3.07404e-05;4;2821;0.00297472;-0.00298861;10 µA;
0.615387;183.924;-3.84003e-05;4;2827;0.00297472;-0.00298861;10 µA;
0.600739;184.217;-4.56085e-05;4;2833;0.00297472;-0.00298861;10 µA;
0.58609;184.51;-5.2475e-05;4;2839;0.00297472;-0.00298861;10 µA;
0.571442;184.803;-5.90393e-05;4;2845;0.00297472;-0.00298861;10 µA;
0.556793;185.096;-6.53992e-05;4;2851;0.00297472;-0.00298861;100 µA;
0.542145;185.389;-7.14722e-05;4;2857;0.00297472;-0.00298861;100 µA;
0.527496;185.682;-7.74536e-05;4;2863;0.00297472;-0.00298861;100 µA;
0.512848;185.975;-8.3313e-05;4;2869;0.00297472;-0.00298861;100 µA;
0.498199;186.268;-8.90198e-05;4;2875;0.00297472;-0.00298861;100 µA;
0.483551;186.561;-9.47266e-05;4;2881;0.00297472;-0.00298861;100 µA;
0.468903;186.854;-0.000100433;4;2887;0.00297472;-0.00298861;100 µA;
0.454254;187.147;-0.00010611;4;2893;0.00297472;-0.00298861;100 µA;
0.439606;187.44;-0.000111877;4;2899;0.00297472;-0.00298861;100 µA;
0.424957;187.733;-0.000117706;4;2905;0.00297472;-0.00298861;100 µA;
0.410309;188.026;-0.000123657;4;2911;0.00297472;-0.00298861;100 µA;
0.39566;188.319;-0.000129822;4;2917;0.00297472;-0.00298861;100 µA;
0.381012;188.612;-0.000136078;4;2923;0.00297472;-0.00298861;100 µA;
0.366364;188.905;-0.000142487;4;2929;0.00297472;-0.00298861;100 µA;
0.351715;189.198;-0.000149078;4;2935;0.00297472;-0.00298861;100 µA;
0.337067;189.491;-0.000155731;4;2941;0.00297472;-0.00298861;100 µA;
0.322418;189.784;-0.000162506;4;2947;0.00297472;-0.00298861;100 µA;
0.30777;190.077;-0.000169312;4;2953;0.00297472;-0.00298861;100 µA;
0.293121;190.37;-0.000176025;4;2959;0.00297472;-0.00298861;100 µA;
0.278473;190.663;-0.000182617;4;2965;0.00297472;-0.00298861;100 µA;
0.263824;190.956;-0.000189117;4;2971;0.00297472;-0.00298861;100 µA;
0.249176;191.249;-0.000195465;4;2977;0.00297472;-0.00298861;100 µA;
0.234528;191.542;-0.000201447;4;2983;0.00297472;-0.00298861;100 µA;
0.219879;191.835;-0.000207245;4;2989;0.00297472;-0.00298861;100 µA;
0.205231;192.128;-0.000212799;4;2995;0.00297472;-0.00298861;100 µA;
0.190582;192.421;-0.000218018;4;3001;0.00297472;-0.00298861;100 µA;
0.175934;192.713;-0.000223053;4;3007;0.00297472;-0.00298861;100 µA;
0.161285;193.006;-0.000227722;4;3013;0.00297472;-0.00298861;100 µA;
0.146637;193.299;-0.000232208;4;3019;0.00297472;-0.00298861;100 µA;
0.131989;193.592;-0.000236328;4;3025;0.00297472;-0.00298861;100 µA;
0.11734;193.885;-0.000240295;4;3031;0.00297472;-0.00298861;100 µA;
0.102692;194.178;-0.000243805;4;3037;0.00297472;-0.00298861;100 µA;
0.0880432;194.471;-0.000247162;4;3043;0.00297472;-0.00298861;100 µA;
0.0733948;194.764;-0.000250244;4;3049;0.00297472;-0.00298861;100 µA;
0.0587463;195.057;-0.000253082;4;3055;0.00297472;-0.00298861;100 µA;
0.0440979;195.35;-0.000255707;4;3061;0.00297472;-0.00298861;100 µA;
0.0294495;195.643;-0.000258118;4;3067;0.00297472;-0.00298861;100 µA;
0.014801;195.936;-0.000260345;4;3073;0.00297472;-0.00298861;100 µA;
0.000152588;196.229;-0.000262573;4;3079;0.00297472;-0.00298861;100 µA;
-0.0144958;196.522;-0.000264557;4;3085;0.00297472;-0.00298861;100 µA;
-0.0291443;196.815;-0.000266479;4;3091;0.00297472;-0.00298861;100 µA;
-0.0437927;197.108;-0.000268341;4;3097;0.00297472;-0.00298861;100 µA;
-0.0584412;197.401;-0.000270111;4;3103;0.00297472;-0.00298861;100 µA;
-0.0730896;197.694;-0.000272003;4;3109;0.00297472;-0.00298861;100 µA;
-0.087738;197.987;-0.000273773;4;3115;0.00297472;-0.00298861;100 µA;
-0.0975037;198.28;-0.000264862;4;3121;0.00297472;-0.00298861;100 µA;
-0.0828552;198.573;-0.000221832;4;3127;0.00297472;-0.00298861;100 µA;
-0.0682068;198.866;-0.000190033;4;3133;0.00297472;-0.00298861;100 µA;
-0.0535583;199.159;-0.000163269;4;3139;0.00297472;-0.00298861;100 µA;
-0.0389099;199.452;-0.00013974;4;3145;0.00297472;-0.00298861;100 µA;
-0.0242615;199.745;-0.000118561;4;3151;0.00297472;-0.00298861;100 µA;
-0.00961304;200.038;-9.92737e-05;4;3157;0.00297472;-0.00298861;100 µA;
0.0050354;200.331;-8.14514e-05;4;3163;0.00297472;-0.00298861;100 µA;
0.0196838;200.624;-6.50024e-05;4;3169;0.00297472;-0.00298861;100 µA;
0.0343323;200.917;-4.95911e-05;4;3175;0.00297472;-0.00298861;100 µA;
0.0489807;201.21;-3.51257e-05;4;3181;0.00297472;-0.00298861;10 µA;
0.0636292;201.503;-2.15088e-05;4;3187;0.00297472;-0.00298861;10 µA;
0.0782776;201.795;-8.64563e-06;4;3193;0.00297472;-0.00298861;10 µA;
0.092926;202.088;3.60992e-06;4;3199;0.00297472;-0.00298861;10 µA;
0.107574;202.381;1.52924e-05;4;3205;0.00297472;-0.00298861;10 µA;
0.122223;202.674;2.64313e-05;4;3211;0.00297472;-0.00298861;10 µA;
0.136871;202.967;3.71613e-05;4;3217;0.00297472;-0.00298861;10 µA;
0.15152;203.26;4.7467e-05;4;3223;0.00297472;-0.00298861;10 µA;
0.166168;203.553;5.73608e-05;4;3229;0.00297472;-0.00298861;10 µA;
0.180817;203.846;6.6864e-05;4;3235;0.00297472;-0.00298861;100 µA;
0.195465;204.139;7.61414e-05;4;3241;0.00297472;-0.00298861;100 µA;
0.210114;204.432;8.52051e-05;4;3247;0.00297472;-0.00298861;100 µA;
0.224762;204.725;9.40247e-05;4;3253;0.00297472;-0.00298861;100 µA;
0.23941;205.018;0.000102539;4;3259;0.00297472;-0.00298861;100 µA;
0.254059;205.311;0.00011087;4;3265;0.00297472;-0.00298861;100 µA;
0.268707;205.604;0.000118958;4;3271;0.00297472;-0.00298861;100 µA;
0.283356;205.897;0.00012677;4;3277;0.00297472;-0.00298861;100 µA;
0.298004;206.19;0.00013446;4;3283;0.00297472;-0.00298861;100 µA;
0.312653;206.483;0.000141907;5;3289;0.003003;-0.00300874;100 µA;
0.327301;206.776;0.000149323;5;3295;0.003003;-0.00300874;100 µA;
0.341949;207.069;0.000156586;5;3301;0.003003;-0.00300874;100 µA;
0.356598;207.362;0.000163727;5;3307;0.003003;-0.00300874;100 µA;
0.371246;207.655;0.000170959;5;3313;0.003003;-0.00300874;100 µA;
0.385895;207.948;0.000177979;5;3319;0.003003;-0.00300874;100 µA;
0.400543;208.241;0.000184967;5;3325;0.003003;-0.00300874;100 µA;
0.415192;208.534;0.000191681;5;3331;0.003003;-0.00300874;100 µA;
0.42984;208.827;0.000198059;5;3337;0.003003;-0.00300874;100 µA;
0.444489;209.12;0.000204071;5;3343;0.003003;-0.00300874;100 µA;
0.459137;209.413;0.000209595;5;3349;0.003003;-0.00300874;100 µA;
0.473785;209.706;0.000214539;5;3355;0.003003;-0.00300874;100 µA;
0.488434;209.999;0.000218994;5;3361;0.003003;-0.00300874;100 µA;
0.503082;210.292;0.00022287;5;3367;0.003003;-0.00300874;100 µA;
0.517731;210.585;0.000226135;5;3373;0.003003;-0.00300874;100 µA;
0.532379;210.877;0.000229034;5;3379;0.003003;-0.00300874;100 µA;
0.547028;211.17;0.000231323;5;3385;0.003003;-0.00300874;100 µA;
0.561676;211.463;0.000233307;5;3391;0.003003;-0.00300874;100 µA;
0.576324;211.756;0.000234955;5;3397;0.003003;-0.00300874;100 µA;
0.590973;212.049;0.000236359;5;3403;0.003003;-0.00300874;100 µA;
0.605621;212.342;0.000237427;5;3409;0.003003;-0.00300874;100 µA;
0.62027;212.635;0.000238342;5;3415;0.003003;-0.00300874;100 µA;
0.634918;212.928;0.000238922;5;3421;0.003003;-0.00300874;100 µA;
0.649567;213.221;0.000239349;5;3427;0.003003;-0.00300874;100 µA;
0.664215;213.514;0.000239594;5;3433;0.003003;-0.00300874;100 µA;
0.678864;213.807;0.000239563;5;3439;0.003003;-0.00300874;100 µA;
0.693512;214.1;0.000239471;5;3445;0.003003;-0.00300874;100 µA;
0.70816;214.393;0.000239136;5;3451;0.003003;-0.00300874;100 µA;
0.722809;214.686;0.000238739;5;3457;0.003003;-0.00300874;100 µA;
0.737457;214.979;0.00023822;5;3463;0.003003;-0.00300874;100 µA;
0.752106;215.272;0.00023761;5;3469;0.003003;-0.00300874;100 µA;
0.766754;215.565;0.000236969;5;3475;0.003003;-0.00300874;100 µA;
0.781403;215.858;0.000236267;5;3481;0.003003;-0.00300874;100 µA;
0.796051;216.151;0.000235626;5;3487;0.003003;-0.00300874;100 µA;
0.810699;216.444;0.000235046;5;3493;0.003003;-0.00300874;100 µA;
0.825348;216.737;0.000234711;5;3499;0.003003;-0.00300874;100 µA;
0.839996;217.03;0.000235413;5;3505;0.003003;-0.00300874;100 µA;
0.849762;217.323;0.000224213;5;3511;0.003003;-0.00300874;100 µA;
0.835114;217.616;0.00018161;5;3517;0.003003;-0.00300874;100 µA;
0.820465;217.909;0.000150879;5;3523;0.003003;-0.00300874;100 µA;
0.805817;218.202;0.000125671;5;3529;0.003003;-0.00300874;100 µA;
0.791168;218.495;0.000104004;5;3535;0.003003;-0.00300874;100 µA;
0.77652;218.788;8.49609e-05;5;3541;0.003003;-0.00300874;100 µA;
0.761871;219.081;6.80542e-05;5;3547;0.003003;-0.00300874;100 µA;
0.747223;219.374;5.27954e-05;5;3553;0.003003;-0.00300874;100 µA;
0.732574;219.667;3.8974e-05;5;3559;0.003003;-0.00300874;100 µA;
0.717926;219.959;2.64587e-05;5;3565;0.003003;-0.00300874;10 µA;
0.703278;220.252;1.48743e-05;5;3571;0.003003;-0.00300874;10 µA;
0.688629;220.545;4.21234e-06;5;3577;0.003003;-0.00300874;10 µA;
0.673981;220.838;-5.80627e-06;5;3583;0.003003;-0.00300874;1 µA;
0.659332;221.131;-1.50116e-05;5;3589;0.003003;-0.00300874;10 µA;
0.644684;221.424;-2.36298e-05;5;3595;0.003003;-0.00300874;10 µA;
0.630035;221.717;-3.17108e-05;5;3601;0.003003;-0.00300874;10 µA;
0.615387;222.01;-3.93677e-05;5;3607;0.003003;-0.00300874;10 µA;
0.600739;222.303;-4.65668e-05;5;3613;0.003003;-0.00300874;10 µA;
0.58609;222.596;-5.34454e-05;5;3619;0.003003;-0.00300874;10 µA;
0.571442;222.889;-6.00128e-05;5;3625;0.003003;-0.00300874;10 µA;
0.556793;223.182;-6.63757e-05;5;3631;0.003003;-0.00300874;100 µA;
0.542145;223.475;-7.24487e-05;5;3637;0.003003;-0.00300874;100 µA;
0.527496;223.768;-7.84302e-05;5;3643;0.003003;-0.00300874;100 µA;
0.512848;224.061;-8.4259e-05;5;3649;0.003003;-0.00300874;100 µA;
0.498199;224.354;-9.00269e-05;5;3655;0.003003;-0.00300874;100 µA;
0.483551;224.647;-9.57642e-05;5;3661;0.003003;-0.00300874;100 µA;
0.468903;224.94;-0.00010144;5;3667;0.003003;-0.00300874;100 µA;
0.454254;225.233;-0.000107178;5;3673;0.003003;-0.00300874;100 µA;
0.439606;225.526;-0.000112946;5;3679;0.003003;-0.00300874;100 µA;
0.424957;225.819;-0.000118805;5;3685;0.003003;-0.00300874;100 µA;
0.410309;226.112;-0.000124847;5;3691;0.003003;-0.00300874;100 µA;
0.39566;226.405;-0.000130951;5;3697;0.003003;-0.00300874;100 µA;
0.381012;226.698;-0.000137329;5;3703;0.003003;-0.00300874;100 µA;
0.366364;226.991;-0.000143799;5;3709;0.003003;-0.00300874;100 µA;
0.351715;227.284;-0.000150696;5;3715;0.003003;-0.00300874;100 µA;
0.337067;227.577;-0.00015744;5;3721;0.003003;-0.00300874;100 µA;
0.322418;227.87;-0.000164246;5;3727;0.003003;-0.00300874;100 µA;
0.30777;228.163;-0.000171082;5;3733;0.003003;-0.00300874;100 µA;
0.293121;228.456;-0.000177917;5;3739;0.003003;-0.00300874;100 µA;
0.278473;228.749;-0.000184601;5;3745;0.003003;-0.00300874;100 µA;
0.263824;229.042;-0.000191162;5;3751;0.003003;-0.00300874;100 µA;
0.249176;229.334;-0.00019751;5;3757;0.003003;-0.00300874;100 µA;
0.234528;229.627;-0.000203644;5;3763;0.003003;-0.00300874;100 µA;
0.219879;229.92;-0.000209503;5;3769;0.003003;-0.00300874;100 µA;
0.205231;230.213;-0.000215149;5;3775;0.003003;-0.00300874;100 µA;
0.190582;230.506;-0.000220367;5;3781;0.003003;-0.00300874;100 µA;
0.175934;230.799;-0.000225372;5;3787;0.003003;-0.00300874;100 µA;
0.161285;231.092;-0.000230133;5;3793;0.003003;-0.00300874;100 µA;
0.146637;231.385;-0.000234558;5;3799;0.003003;-0.00300874;100 µA;
0.131989;231.678;-0.000238708;5;3805;0.003003;-0.00300874;100 µA;
0.11734;231.971;-0.000242523;5;3811;0.003003;-0.00300874;100 µA;
0.102692;232.264;-0.000246185;5;3817;0.003003;-0.00300874;100 µA;
0.0880432;232.557;-0.000249512;5;3823;0.003003;-0.00300874;100 µA;
0.0733948;232.85;-0.000252441;5;3829;0.003003;-0.00300874;100 µA;
0.0587463;233.143;-0.000255249;5;3835;0.003003;-0.00300874;100 µA;
0.0440979;233.436;-0.000257721;5;3841;0.003003;-0.00300874;100 µA;
0.0294495;233.729;-0.000260132;5;3847;0.003003;-0.00300874;100 µA;
0.014801;234.022;-0.00026236;5;3853;0.003003;-0.00300874;100 µA;
0.000152588;234.315;-0.000264313;5;3859;0.003003;-0.00300874;100 µA;
-0.0144958;234.608;-0.000266296;5;3865;0.003003;-0.00300874;100 µA;
-0.0291443;234.901;-0.000268158;5;3871;0.003003;-0.00300874;100 µA;
-0.0437927;235.194;-0.000269958;5;3877;0.003003;-0.00300874;100 µA;
-0.0584412;235.487;-0.000271729;5;3883;0.003003;-0.00300874;100 µA;
-0.0730896;235.78;-0.000273499;5;3889;0.003003;-0.00300874;100 µA;
-0.087738;236.073;-0.00027533;5;3895;0.003003;-0.00300874;100 µA;
-0.0975037;236.366;-0.000266144;5;3901;0.003003;-0.00300874;100 µA;
-0.0828552;236.659;-0.00022229;5;3907;0.003003;-0.00300874;100 µA;
-0.0682068;236.952;-0.00018985;5;3913;0.003003;-0.00300874;100 µA;
-0.0535583;237.245;-0.000162598;5;3919;0.003003;-0.00300874;100 µA;
-0.0389099;237.538;-0.000138702;5;3925;0.003003;-0.00300874;100 µA;
-0.0242615;237.831;-0.000117218;5;3931;0.003003;-0.00300874;100 µA;
-0.00961304;238.124;-9.76868e-05;5;3937;0.003003;-0.00300874;100 µA;
0.0050354;238.416;-7.97119e-05;5;3943;0.003003;-0.00300874;100 µA;
0.0196838;238.709;-6.30493e-05;5;3949;0.003003;-0.00300874;100 µA;
0.0343323;239.002;-4.75769e-05;5;3955;0.003003;-0.00300874;100 µA;
0.0489807;239.295;-3.2959e-05;5;3961;0.003003;-0.00300874;10 µA;
0.0636292;239.588;-1.92749e-05;5;3967;0.003003;-0.00300874;10 µA;
0.0782776;239.881;-6.38733e-06;5;3973;0.003003;-0.00300874;10 µA;
0.092926;240.174;5.90607e-06;5;3979;0.003003;-0.00300874;1 µA;
0.107574;240.467;1.75842e-05;5;3985;0.003003;-0.00300874;10 µA;
0.122223;240.76;2.87598e-05;5;3991;0.003003;-0.00300874;10 µA;
0.136871;241.053;3.94775e-05;5;3997;0.003003;-0.00300874;10 µA;
0.15152;241.346;4.97925e-05;5;4003;0.003003;-0.00300874;10 µA;
0.166168;241.639;5.96832e-05;5;4009;0.003003;-0.00300874;10 µA;
0.180817;241.932;6.91833e-05;5;4015;0.003003;-0.00300874;100 µA;
0.195465;242.225;7.84607e-05;5;4021;0.003003;-0.00300874;100 µA;
0.210114;242.518;8.75244e-05;5;4027;0.003003;-0.00300874;100 µA;
0.224762;242.811;9.63745e-05;5;4033;0.003003;-0.00300874;100 µA;
0.23941;243.104;0.000104889;5;4039;0.003003;-0.00300874;100 µA;
0.254059;243.397;0.00011319;5;4045;0.003003;-0.00300874;100 µA;
0.268707;243.69;0.000121307;5;4051;0.003003;-0.00300874;100 µA;
0.283356;243.983;0.00012912;5;4057;0.003003;-0.00300874;100 µA;
0.298004;244.276;0.00013678;5;4063;0.003003;-0.00300874;100 µA;
0.300446;244.325;0.000138031;5;4064;0.003003;-0.00300874;100 µA;